id,age,sex,cb,order,block,part,trial,cue,buses_order,trans_type,surprise,ans,response,RT,ACC,performance
3,26,m,1,3,practice_no_timeout,association1,1,house2,blue-red,regular,NA,l,a,0.8958660997450352,0
3,26,m,1,3,practice_no_timeout,association1,2,house2,red-blue,regular,NA,a,a,1.6252239998430014,1
3,26,m,1,3,practice_no_timeout,association1,3,house2,red-blue,regular,NA,a,l,1.6271208990365267,0
3,26,m,1,3,practice_no_timeout,association1,4,house1,red-blue,regular,NA,l,a,1.7401518002152443,0
3,26,m,1,3,practice_no_timeout,association1,5,house2,red-blue,regular,NA,a,a,1.1681003011763096,1
3,26,m,1,3,practice_no_timeout,association1,6,house2,red-blue,regular,NA,a,a,1.0454973001033068,1
3,26,m,1,3,practice_no_timeout,association1,7,house1,blue-red,regular,NA,a,l,1.1574908997863531,0
3,26,m,1,3,practice_no_timeout,association1,8,house2,red-blue,regular,NA,a,l,1.6003078985959291,0
3,26,m,1,3,practice_no_timeout,association1,9,house1,red-blue,regular,NA,l,a,1.4148320984095335,0
3,26,m,1,3,practice_no_timeout,association1,10,house1,blue-red,regular,NA,a,a,1.20839829929173,1
3,26,m,1,3,practice_no_timeout,association1,11,house1,blue-red,regular,NA,a,l,1.4346614014357328,0
3,26,m,1,3,practice_no_timeout,association1,12,house2,blue-red,regular,NA,l,l,1.1232400014996529,1
3,26,m,1,3,practice_no_timeout,association1,13,house1,blue-red,regular,NA,a,a,1.6799297016113997,1
3,26,m,1,3,practice_no_timeout,association1,14,house2,red-blue,regular,NA,a,a,1.8094459995627403,1
3,26,m,1,3,practice_no_timeout,association1,15,house1,blue-red,regular,NA,a,a,2.3706552013754845,1
3,26,m,1,3,practice_no_timeout,association1,16,house1,red-blue,regular,NA,l,l,1.2335626985877752,1
3,26,m,1,3,practice_no_timeout,association1,17,house1,blue-red,regular,NA,a,a,1.3181650005280972,1
3,26,m,1,3,practice_no_timeout,association1,18,house1,blue-red,regular,NA,a,a,0.8089494984596968,1
3,26,m,1,3,practice_no_timeout,association1,19,house2,blue-red,regular,NA,l,l,0.5369222015142441,1
3,26,m,1,3,practice_no_timeout,association1,20,house1,blue-red,regular,NA,a,a,0.564870398491621,1
3,26,m,1,3,practice_no_timeout,association1,21,house1,red-blue,regular,NA,l,l,1.7882311008870602,1
3,26,m,1,3,practice_no_timeout,association1,22,house1,red-blue,regular,NA,l,l,0.5386477001011372,1
3,26,m,1,3,practice_no_timeout,association1,23,house2,blue-red,regular,NA,l,l,0.7820090986788273,1
3,26,m,1,3,practice_no_timeout,association1,24,house2,blue-red,regular,NA,l,l,1.8751751985400915,1
3,26,m,1,3,practice_no_timeout,association1,25,house2,red-blue,regular,NA,a,a,2.3866964001208544,1
3,26,m,1,3,practice_no_timeout,association1,26,house1,blue-red,regular,NA,a,a,2.021544698625803,1
3,26,m,1,3,practice_no_timeout,association1,27,house2,blue-red,regular,NA,l,l,1.0711730010807514,1
3,26,m,1,3,practice_no_timeout,association1,28,house1,blue-red,regular,NA,a,a,2.565201601013541,1
3,26,m,1,3,practice_no_timeout,association1,29,house1,red-blue,regular,NA,l,l,1.4631650000810623,1
3,26,m,1,3,practice_no_timeout,association1,30,house1,red-blue,regular,NA,l,l,1.811031199991703,1
3,26,m,1,3,practice_no_timeout,association1,31,house2,red-blue,regular,NA,a,a,0.8149919006973505,1
3,26,m,1,3,practice_no_timeout,association1,32,house2,red-blue,regular,NA,a,a,1.7189687993377447,1
3,26,m,1,3,practice_no_timeout,association1,33,house2,blue-red,regular,NA,l,l,1.8876306992024183,1
3,26,m,1,3,practice_no_timeout,association1,34,house2,red-blue,regular,NA,a,a,1.7823760006576777,1
3,26,m,1,3,practice,association1_timepres,1,house1,red-blue,regular,NA,l,NA,NA,0
3,26,m,1,3,practice,association1_timepres,2,house2,red-blue,regular,NA,a,l,0.4294889997690916,0
3,26,m,1,3,practice,association1_timepres,3,house2,red-blue,regular,NA,a,a,0.24610169976949692,1
3,26,m,1,3,practice,association1_timepres,4,house1,blue-red,regular,NA,a,a,0.36438039876520634,1
3,26,m,1,3,practice,association1_timepres,5,house1,blue-red,regular,NA,a,l,0.4673087988048792,0
3,26,m,1,3,practice,association1_timepres,6,house1,blue-red,regular,NA,a,a,0.5039261002093554,1
3,26,m,1,3,practice,association1_timepres,7,house2,red-blue,regular,NA,a,NA,NA,0
3,26,m,1,3,practice,association1_timepres,8,house1,blue-red,regular,NA,a,a,0.48082670010626316,1
3,26,m,1,3,practice,association1_timepres,9,house1,red-blue,regular,NA,l,NA,NA,0
3,26,m,1,3,practice,association1_timepres,10,house2,blue-red,regular,NA,l,a,0.5429973006248474,0
3,26,m,1,3,practice,association1_timepres,11,house2,red-blue,regular,NA,a,a,0.42068370059132576,1
3,26,m,1,3,practice,association1_timepres,12,house1,blue-red,regular,NA,a,a,0.3441482000052929,1
3,26,m,1,3,practice,association1_timepres,13,house1,red-blue,regular,NA,l,l,0.688272800296545,1
3,26,m,1,3,practice,association1_timepres,14,house1,red-blue,regular,NA,l,l,0.6146591994911432,1
3,26,m,1,3,practice,association1_timepres,15,house2,blue-red,regular,NA,l,a,0.5167526993900537,0
3,26,m,1,3,practice,association1_timepres,16,house2,blue-red,regular,NA,l,NA,NA,0
3,26,m,1,3,practice,association1_timepres,17,house1,blue-red,regular,NA,a,l,0.24999579973518848,0
3,26,m,1,3,practice,association1_timepres,18,house1,blue-red,regular,NA,a,a,0.247154600918293,1
3,26,m,1,3,practice,association1_timepres,19,house1,red-blue,regular,NA,l,l,0.7422812003642321,1
3,26,m,1,3,practice,association1_timepres,20,house1,blue-red,regular,NA,a,a,0.6664502006024122,1
3,26,m,1,3,practice,association1_timepres,21,house1,red-blue,regular,NA,l,l,0.4070408008992672,1
3,26,m,1,3,practice,association1_timepres,22,house1,blue-red,regular,NA,a,NA,NA,0
3,26,m,1,3,practice,association1_timepres,23,house2,red-blue,regular,NA,a,a,0.5168861001729965,1
3,26,m,1,3,practice,association1_timepres,24,house2,red-blue,regular,NA,a,a,0.3537745997309685,1
3,26,m,1,3,practice,association1_timepres,25,house2,red-blue,regular,NA,a,a,0.2736594993621111,1
3,26,m,1,3,practice,association1_timepres,26,house1,blue-red,regular,NA,a,l,0.6199843995273113,0
3,26,m,1,3,practice,association1_timepres,27,house2,blue-red,regular,NA,l,l,0.5516688991338015,1
3,26,m,1,3,practice,association1_timepres,28,house2,red-blue,regular,NA,a,a,0.3255053013563156,1
3,26,m,1,3,practice,association1_timepres,29,house2,blue-red,regular,NA,l,l,0.685919800773263,1
3,26,m,1,3,practice,association1_timepres,30,house1,red-blue,regular,NA,l,l,0.28507550060749054,1
3,26,m,1,3,practice,association1_timepres,31,house2,red-blue,regular,NA,a,a,0.2189886011183262,1
3,26,m,1,3,practice,association1_timepres,32,house2,blue-red,regular,NA,l,l,0.7015055995434523,1
3,26,m,1,3,practice,association1_timepres,33,house2,blue-red,regular,NA,l,l,0.6313409004360437,1
3,26,m,1,3,practice,association1_timepres,34,house2,red-blue,regular,NA,a,l,0.7426463011652231,0
3,26,m,1,3,practice_no_timeout,association2,1,house2,blue-red,regular,NA,a,l,0.6640363000333309,0
3,26,m,1,3,practice_no_timeout,association2,2,house2,blue-red,regular,NA,a,l,1.521177999675274,0
3,26,m,1,3,practice_no_timeout,association2,3,house1,blue-red,regular,NA,l,a,0.9409010987728834,0
3,26,m,1,3,practice_no_timeout,association2,4,house1,blue-red,regular,NA,l,l,0.6286143995821476,1
3,26,m,1,3,practice_no_timeout,association2,5,house2,blue-red,regular,NA,a,a,0.34404549933969975,1
3,26,m,1,3,practice_no_timeout,association2,6,house1,red-blue,regular,NA,a,l,0.5280160997062922,0
3,26,m,1,3,practice_no_timeout,association2,7,house1,blue-red,regular,NA,l,l,0.47280680015683174,1
3,26,m,1,3,practice_no_timeout,association2,8,house2,red-blue,regular,NA,l,l,0.5168960001319647,1
3,26,m,1,3,practice_no_timeout,association2,9,house1,blue-red,regular,NA,l,l,0.5225152000784874,1
3,26,m,1,3,practice_no_timeout,association2,10,house1,red-blue,regular,NA,a,a,0.5008834004402161,1
3,26,m,1,3,practice_no_timeout,association2,11,house2,blue-red,regular,NA,a,a,0.3278551995754242,1
3,26,m,1,3,practice_no_timeout,association2,12,house2,blue-red,regular,NA,a,a,0.3371297996491194,1
3,26,m,1,3,practice_no_timeout,association2,13,house2,blue-red,regular,NA,a,a,0.4495998006314039,1
3,26,m,1,3,practice_no_timeout,association2,14,house1,red-blue,regular,NA,a,a,0.3199610002338886,1
3,26,m,1,3,practice_no_timeout,association2,15,house1,red-blue,regular,NA,a,a,0.44642990082502365,1
3,26,m,1,3,practice_no_timeout,association2,16,house2,blue-red,regular,NA,a,a,0.3376327008008957,1
3,26,m,1,3,practice_no_timeout,association2,17,house2,red-blue,regular,NA,l,l,0.6492849010974169,1
3,26,m,1,3,practice_no_timeout,association2,18,house1,blue-red,regular,NA,l,l,0.5410804003477097,1
3,26,m,1,3,practice_no_timeout,association2,19,house1,red-blue,regular,NA,a,a,0.49066090025007725,1
3,26,m,1,3,practice_no_timeout,association2,20,house1,red-blue,regular,NA,a,a,0.3828311003744602,1
3,26,m,1,3,practice,association2_timepres,1,house1,blue-red,regular,NA,l,NA,NA,0
3,26,m,1,3,practice,association2_timepres,2,house2,red-blue,regular,NA,l,l,0.4093207996338606,1
3,26,m,1,3,practice,association2_timepres,3,house2,blue-red,regular,NA,a,a,0.35369300097227097,1
3,26,m,1,3,practice,association2_timepres,4,house2,blue-red,regular,NA,a,a,0.3045841995626688,1
3,26,m,1,3,practice,association2_timepres,5,house1,red-blue,regular,NA,a,l,0.508568000048399,0
3,26,m,1,3,practice,association2_timepres,6,house1,red-blue,regular,NA,a,a,0.4854428004473448,1
3,26,m,1,3,practice,association2_timepres,7,house2,blue-red,regular,NA,a,a,0.381266999989748,1
3,26,m,1,3,practice,association2_timepres,8,house2,red-blue,regular,NA,l,a,0.7164735998958349,0
3,26,m,1,3,practice,association2_timepres,9,house1,blue-red,regular,NA,l,l,0.40984039939939976,1
3,26,m,1,3,practice,association2_timepres,10,house2,red-blue,regular,NA,l,l,0.358696598559618,1
3,26,m,1,3,practice,association2_timepres,11,house1,blue-red,regular,NA,l,l,0.3166156988590956,1
3,26,m,1,3,practice,association2_timepres,12,house1,red-blue,regular,NA,a,a,0.37380080111324787,1
3,26,m,1,3,practice,association2_timepres,13,house2,blue-red,regular,NA,a,a,0.35462270118296146,1
3,26,m,1,3,practice,association2_timepres,14,house1,red-blue,regular,NA,a,a,0.370829701423645,1
3,26,m,1,3,practice,association2_timepres,15,house2,blue-red,regular,NA,a,a,0.37254139967262745,1
3,26,m,1,3,1,changepoint_prac,1,stimuli/house1.png,stimuli/blue-red.png,regular,steady,a,l,0.3753821011632681,0,0
3,26,m,1,3,1,changepoint_prac,2,stimuli/house2.png,stimuli/blue-red.png,regular,steady,l,l,0.41928059980273247,1,1
3,26,m,1,3,1,changepoint_prac,3,stimuli/house1.png,stimuli/blue-red.png,regular,steady,a,a,0.4709593001753092,1,2
3,26,m,1,3,1,changepoint_prac,4,stimuli/house1.png,stimuli/blue-red.png,regular,steady,a,a,0.6163355000317097,1,3
3,26,m,1,3,1,changepoint_prac,5,stimuli/house2.png,stimuli/blue-red.png,oddball,switch,a,l,0.45188239961862564,0,3
3,26,m,1,3,1,changepoint_prac,6,stimuli/house1.png,stimuli/blue-red.png,oddball,steady,l,NA,NA,0,3
3,26,m,1,3,1,changepoint_prac,7,stimuli/house1.png,stimuli/blue-red.png,oddball,steady,l,l,0.48402070067822933,1,4
3,26,m,1,3,1,changepoint_prac,8,stimuli/house1.png,stimuli/red-blue.png,oddball,steady,a,a,0.3471310008317232,1,5
3,26,m,1,3,1,changepoint_prac,9,stimuli/house2.png,stimuli/red-blue.png,oddball,steady,l,l,0.4087672997266054,1,6
3,26,m,1,3,1,changepoint_prac,10,stimuli/house2.png,stimuli/blue-red.png,oddball,steady,a,a,0.6571469008922577,1,7
3,26,m,1,3,1,changepoint_prac,11,stimuli/house2.png,stimuli/blue-red.png,oddball,steady,a,a,0.45592600107192993,1,8
3,26,m,1,3,1,changepoint_prac,12,stimuli/house2.png,stimuli/red-blue.png,regular,switch,a,l,0.40213629975914955,0,8
3,26,m,1,3,1,changepoint_prac,13,stimuli/house2.png,stimuli/blue-red.png,regular,steady,l,l,0.5497214999049902,1,9
3,26,m,1,3,1,changepoint_prac,14,stimuli/house2.png,stimuli/red-blue.png,regular,steady,a,a,0.5063338000327349,1,10
3,26,m,1,3,1,changepoint_prac,15,stimuli/house2.png,stimuli/red-blue.png,regular,steady,a,a,0.7166729010641575,1,11
3,26,m,1,3,1,changepoint_prac,16,stimuli/house1.png,stimuli/blue-red.png,oddball,switch,l,a,0.4497330002486706,0,11
3,26,m,1,3,1,changepoint_prac,17,stimuli/house2.png,stimuli/blue-red.png,oddball,steady,a,a,0.6092552989721298,1,12
3,26,m,1,3,1,changepoint_prac,18,stimuli/house1.png,stimuli/red-blue.png,oddball,steady,a,a,0.38347950018942356,1,13
3,26,m,1,3,1,changepoint_prac,19,stimuli/house1.png,stimuli/red-blue.png,oddball,steady,a,a,0.3757838997989893,1,14
3,26,m,1,3,1,changepoint_prac,20,stimuli/house2.png,stimuli/red-blue.png,oddball,steady,l,l,0.4033222012221813,1,15
3,26,m,1,3,1,changepoint_prac,21,stimuli/house2.png,stimuli/blue-red.png,oddball,steady,a,a,0.3777984008193016,1,16
3,26,m,1,3,1,oddball_prac,1,house1,red-blue,regular,NA,l,a,0.5151027999818325,0,0
3,26,m,1,3,1,oddball_prac,2,house2,blue-red,regular,NA,l,l,0.44752470031380653,1,1
3,26,m,1,3,1,oddball_prac,3,house1,red-blue,oddball,NA,a,l,0.46392850019037724,0,1
3,26,m,1,3,1,oddball_prac,4,house2,red-blue,regular,NA,a,NA,NA,0,1
3,26,m,1,3,1,oddball_prac,5,house2,red-blue,regular,NA,a,l,0.36447189934551716,0,1
3,26,m,1,3,1,oddball_prac,6,house2,blue-red,regular,NA,l,l,0.37539189867675304,1,2
3,26,m,1,3,1,oddball_prac,7,house2,blue-red,regular,NA,l,l,0.3572383001446724,1,3
3,26,m,1,3,1,oddball_prac,8,house2,red-blue,regular,NA,a,l,0.5625880006700754,0,3
3,26,m,1,3,1,oddball_prac,9,house1,red-blue,oddball,NA,a,NA,NA,0,3
3,26,m,1,3,1,oddball_prac,10,house2,blue-red,regular,NA,l,l,0.46422520093619823,1,4
3,26,m,1,3,1,oddball_prac,11,house1,blue-red,regular,NA,a,a,0.32884709909558296,1,5
3,26,m,1,3,1,oddball_prac,12,house2,blue-red,oddball,NA,a,l,0.44832510128617287,0,5
3,26,m,1,3,1,oddball_prac,13,house1,red-blue,regular,NA,l,l,0.5045242998749018,1,6
3,26,m,1,3,1,oddball_prac,14,house1,blue-red,regular,NA,a,a,0.5129388999193907,1,7
3,26,m,1,3,1,oddball_prac,15,house1,red-blue,regular,NA,l,l,0.3338502012193203,1,8
3,26,m,1,3,1,oddball_prac,16,house1,blue-red,oddball,NA,l,a,0.34528409875929356,0,8
3,26,m,1,3,1,oddball_prac,17,house1,blue-red,regular,NA,a,l,0.5317465011030436,0,8
3,26,m,1,3,1,oddball_prac,18,house2,blue-red,regular,NA,l,l,0.3683928996324539,1,9
3,26,m,1,3,1,oddball_prac,19,house2,blue-red,oddball,NA,a,a,0.5153608992695808,1,10
3,26,m,1,3,1,oddball_prac,20,house2,red-blue,regular,NA,a,a,0.4406655002385378,1,11
3,26,m,1,3,1,oddball_prac,21,house1,blue-red,regular,NA,a,a,0.3459402993321419,1,12
3,26,m,1,3,1,oddball_prac,22,house2,red-blue,regular,NA,a,NA,NA,0,12
3,26,m,1,3,1,oddball_prac,23,house1,red-blue,oddball,NA,a,NA,-4.780944298952818,0,12
3,26,m,1,3,1,oddball_prac,24,house1,blue-red,regular,NA,a,l,0.3925246000289917,0,12
3,26,m,1,3,1,oddball_prac,25,house1,blue-red,regular,NA,a,a,0.33308229967951775,1,13
3,26,m,1,3,1,oddball_prac,26,house1,red-blue,regular,NA,l,l,0.5209165997803211,1,14
3,26,m,1,3,1,oddball_prac,27,house1,blue-red,regular,NA,a,a,0.38793350011110306,1,15
3,26,m,1,3,1,oddball_prac,28,house1,blue-red,regular,NA,a,a,0.45614689961075783,1,16
3,26,m,1,3,1,oddball_prac,29,house2,red-blue,regular,NA,a,l,0.3907789010554552,0,16
3,26,m,1,3,1,oddball_prac,30,house2,red-blue,regular,NA,a,a,0.34107809886336327,1,17
3,26,m,1,3,1,oddball_prac,1,house1,red-blue,regular,NA,a,NA,NA,0,0
3,26,m,1,3,1,oddball_prac,2,house1,red-blue,oddball,NA,l,l,0.38107459992170334,1,1
3,26,m,1,3,1,oddball_prac,3,house1,blue-red,regular,NA,l,a,0.6398251000791788,0,1
3,26,m,1,3,1,oddball_prac,4,house2,red-blue,regular,NA,l,l,0.4136786013841629,1,2
3,26,m,1,3,1,oddball_prac,5,house1,red-blue,oddball,NA,l,l,0.349277900531888,1,3
3,26,m,1,3,1,oddball_prac,6,house2,red-blue,regular,NA,l,l,0.36044859886169434,1,4
3,26,m,1,3,1,oddball_prac,7,house2,red-blue,regular,NA,l,l,0.3123309016227722,1,5
3,26,m,1,3,1,oddball_prac,8,house1,blue-red,oddball,NA,a,l,0.35660630092024803,0,5
3,26,m,1,3,1,oddball_prac,9,house2,blue-red,regular,NA,a,a,0.5584305990487337,1,6
3,26,m,1,3,1,oddball_prac,10,house2,blue-red,regular,NA,a,a,0.3407557997852564,1,7
3,26,m,1,3,1,oddball_prac,11,house2,red-blue,regular,NA,l,l,0.4546658005565405,1,8
3,26,m,1,3,1,oddball1,1,house1,red-blue,oddball,NA,a,a,0.3357691001147032,1,1
3,26,m,1,3,1,oddball1,2,house1,blue-red,regular,NA,a,l,0.5254041999578476,0,1
3,26,m,1,3,1,oddball1,3,house1,blue-red,regular,NA,a,l,0.3475545011460781,0,1
3,26,m,1,3,1,oddball1,4,house2,blue-red,regular,NA,l,l,0.4295361991971731,1,2
3,26,m,1,3,1,oddball1,5,house2,blue-red,oddball,NA,a,l,0.3606690000742674,0,2
3,26,m,1,3,1,oddball1,6,house2,red-blue,regular,NA,a,l,0.7060298006981611,0,2
3,26,m,1,3,1,oddball1,7,house1,blue-red,regular,NA,a,a,0.6167171988636255,1,3
3,26,m,1,3,1,oddball1,8,house2,red-blue,regular,NA,a,a,0.4007578995078802,1,4
3,26,m,1,3,1,oddball1,9,house2,blue-red,oddball,NA,a,l,0.3605942986905575,0,4
3,26,m,1,3,1,oddball1,10,house1,blue-red,regular,NA,a,l,0.5164014007896185,0,4
3,26,m,1,3,1,oddball1,11,house1,blue-red,regular,NA,a,a,0.5134972985833883,1,5
3,26,m,1,3,1,oddball1,12,house2,red-blue,oddball,NA,l,a,0.32243079878389835,0,5
3,26,m,1,3,1,oddball1,13,house2,red-blue,regular,NA,a,a,0.34918239898979664,1,6
3,26,m,1,3,1,oddball1,14,house2,red-blue,regular,NA,a,a,0.34819949977099895,1,7
3,26,m,1,3,1,oddball1,15,house2,red-blue,regular,NA,a,a,0.5559621993452311,1,8
3,26,m,1,3,1,oddball1,16,house2,red-blue,oddball,NA,l,a,0.37953170016407967,0,8
3,26,m,1,3,1,oddball1,17,house2,blue-red,regular,NA,l,l,0.3531263992190361,1,9
3,26,m,1,3,1,oddball1,18,house2,red-blue,regular,NA,a,l,0.5028597004711628,0,9
3,26,m,1,3,1,oddball1,19,house2,blue-red,regular,NA,l,l,0.5491825006902218,1,10
3,26,m,1,3,1,oddball1,20,house2,red-blue,regular,NA,a,a,0.3833627998828888,1,11
3,26,m,1,3,1,oddball1,21,house2,blue-red,regular,NA,l,l,0.40764059871435165,1,12
3,26,m,1,3,1,oddball1,22,house1,blue-red,regular,NA,a,a,0.3408921007066965,1,13
3,26,m,1,3,1,oddball1,23,house2,red-blue,regular,NA,a,a,0.636889299377799,1,14
3,26,m,1,3,1,oddball1,24,house1,red-blue,regular,NA,l,l,0.5824012998491526,1,15
3,26,m,1,3,1,oddball1,25,house1,blue-red,oddball,NA,l,a,0.3696429990231991,0,15
3,26,m,1,3,1,oddball1,26,house2,blue-red,regular,NA,l,l,0.3496656008064747,1,16
3,26,m,1,3,1,oddball1,27,house1,red-blue,regular,NA,l,l,0.5317039005458355,1,17
3,26,m,1,3,1,oddball1,28,house1,blue-red,regular,NA,a,l,0.4675746001303196,0,17
3,26,m,1,3,1,oddball1,29,house1,red-blue,regular,NA,l,l,0.34078120067715645,1,18
3,26,m,1,3,1,oddball1,30,house1,red-blue,regular,NA,l,l,0.6124934013932943,1,19
3,26,m,1,3,2,oddball2,1,house2,blue-red,oddball,NA,l,a,0.3256918005645275,0,0
3,26,m,1,3,2,oddball2,2,house1,blue-red,regular,NA,l,l,0.4640690013766289,1,1
3,26,m,1,3,2,oddball2,3,house2,blue-red,regular,NA,a,l,0.3965574000030756,0,1
3,26,m,1,3,2,oddball2,4,house1,blue-red,regular,NA,l,l,0.4247741997241974,1,2
3,26,m,1,3,2,oddball2,5,house2,blue-red,regular,NA,a,a,0.29473039880394936,1,3
3,26,m,1,3,2,oddball2,6,house1,red-blue,regular,NA,a,l,0.457736199721694,0,3
3,26,m,1,3,2,oddball2,7,house2,blue-red,regular,NA,a,a,0.4873853996396065,1,4
3,26,m,1,3,2,oddball2,8,house2,red-blue,oddball,NA,a,l,0.3709885999560356,0,4
3,26,m,1,3,2,oddball2,9,house2,red-blue,regular,NA,l,l,0.4983284994959831,1,5
3,26,m,1,3,2,oddball2,10,house2,blue-red,regular,NA,a,a,0.44043179973959923,1,6
3,26,m,1,3,2,oddball2,11,house1,blue-red,regular,NA,l,l,0.505333200097084,1,7
3,26,m,1,3,2,oddball2,12,house1,red-blue,regular,NA,a,a,0.36098070070147514,1,8
3,26,m,1,3,2,oddball2,13,house2,red-blue,oddball,NA,a,l,0.45053770020604134,0,8
3,26,m,1,3,2,oddball2,14,house1,red-blue,regular,NA,a,a,0.6148924995213747,1,9
3,26,m,1,3,2,oddball2,15,house1,blue-red,regular,NA,l,l,0.4031145013868809,1,10
3,26,m,1,3,2,oddball2,16,house2,red-blue,regular,NA,l,l,0.45285109989345074,1,11
3,26,m,1,3,2,oddball2,17,house1,red-blue,oddball,NA,l,a,0.37899040058255196,0,11
3,26,m,1,3,2,oddball2,18,house1,red-blue,regular,NA,a,a,0.47348579950630665,1,12
3,26,m,1,3,2,oddball2,19,house2,red-blue,regular,NA,l,l,0.4329048004001379,1,13
3,26,m,1,3,2,oddball2,20,house2,blue-red,oddball,NA,l,a,0.45316450111567974,0,13
3,26,m,1,3,2,oddball2,21,house1,blue-red,regular,NA,l,l,0.38554699905216694,1,14
3,26,m,1,3,2,oddball2,22,house2,red-blue,regular,NA,l,l,0.41772410087287426,1,15
3,26,m,1,3,2,oddball2,23,house2,red-blue,regular,NA,l,l,0.6751156002283096,1,16
3,26,m,1,3,2,oddball2,24,house2,red-blue,oddball,NA,a,l,0.3807661011815071,0,16
3,26,m,1,3,2,oddball2,25,house1,blue-red,regular,NA,l,l,0.528566999360919,1,17
3,26,m,1,3,2,oddball2,26,house1,blue-red,regular,NA,l,l,0.41921369917690754,1,18
3,26,m,1,3,2,oddball2,27,house1,blue-red,regular,NA,l,l,0.47663390077650547,1,19
3,26,m,1,3,2,oddball2,28,house1,red-blue,regular,NA,a,a,0.5349381007254124,1,20
3,26,m,1,3,2,oddball2,29,house2,blue-red,regular,NA,a,a,0.42645580135285854,1,21
3,26,m,1,3,2,oddball2,30,house1,red-blue,regular,NA,a,a,0.3550917003303766,1,22
3,26,m,1,3,3,changepoint,1,stimuli/house1.png,stimuli/blue-red.png,regular,steady,a,l,0.3818196002393961,0,0
3,26,m,1,3,3,changepoint,2,stimuli/house1.png,stimuli/red-blue.png,regular,steady,l,l,0.7069532983005047,1,1
3,26,m,1,3,3,changepoint,3,stimuli/house1.png,stimuli/red-blue.png,regular,steady,l,l,0.5416719000786543,1,2
3,26,m,1,3,3,changepoint,4,stimuli/house1.png,stimuli/red-blue.png,regular,steady,l,l,0.37955830059945583,1,3
3,26,m,1,3,3,changepoint,5,stimuli/house2.png,stimuli/red-blue.png,oddball,switch,l,a,0.341686200350523,0,3
3,26,m,1,3,3,changepoint,6,stimuli/house2.png,stimuli/blue-red.png,oddball,steady,a,a,0.33631639927625656,1,4
3,26,m,1,3,3,changepoint,7,stimuli/house1.png,stimuli/blue-red.png,oddball,steady,l,l,0.3591885007917881,1,5
3,26,m,1,3,3,changepoint,8,stimuli/house2.png,stimuli/blue-red.png,oddball,steady,a,a,0.40480609983205795,1,6
3,26,m,1,3,3,changepoint,9,stimuli/house1.png,stimuli/red-blue.png,oddball,steady,a,a,0.4271166995167732,1,7
3,26,m,1,3,3,changepoint,10,stimuli/house2.png,stimuli/blue-red.png,oddball,steady,a,a,0.4001297987997532,1,8
3,26,m,1,3,3,changepoint,11,stimuli/house1.png,stimuli/red-blue.png,oddball,steady,a,a,0.3686924986541271,1,9
3,26,m,1,3,3,changepoint,12,stimuli/house1.png,stimuli/blue-red.png,regular,switch,a,l,0.4638943001627922,0,9
3,26,m,1,3,3,changepoint,13,stimuli/house1.png,stimuli/red-blue.png,regular,steady,l,l,0.37954720109701157,1,10
3,26,m,1,3,3,changepoint,14,stimuli/house1.png,stimuli/red-blue.png,regular,steady,l,l,0.5787404999136925,1,11
3,26,m,1,3,3,changepoint,15,stimuli/house2.png,stimuli/blue-red.png,regular,steady,l,l,0.3708791993558407,1,12
3,26,m,1,3,3,changepoint,16,stimuli/house2.png,stimuli/red-blue.png,regular,steady,a,a,0.3546795006841421,1,13
3,26,m,1,3,3,changepoint,17,stimuli/house1.png,stimuli/red-blue.png,regular,steady,l,l,0.3683331999927759,1,14
3,26,m,1,3,3,changepoint,18,stimuli/house1.png,stimuli/blue-red.png,regular,steady,a,a,0.5400354992598295,1,15
3,26,m,1,3,3,changepoint,19,stimuli/house1.png,stimuli/red-blue.png,oddball,switch,a,l,0.3786084000021219,0,15
3,26,m,1,3,3,changepoint,20,stimuli/house2.png,stimuli/red-blue.png,oddball,steady,l,l,0.3510579001158476,1,16
3,26,m,1,3,3,changepoint,21,stimuli/house2.png,stimuli/blue-red.png,oddball,steady,a,a,0.3699529003351927,1,17
3,26,m,1,3,3,changepoint,22,stimuli/house1.png,stimuli/red-blue.png,oddball,steady,a,a,0.3108968995511532,1,18
3,26,m,1,3,3,changepoint,23,stimuli/house1.png,stimuli/blue-red.png,regular,switch,a,l,0.44853989966213703,0,18
3,26,m,1,3,3,changepoint,24,stimuli/house2.png,stimuli/red-blue.png,regular,steady,a,a,0.3325121998786926,1,19
3,26,m,1,3,3,changepoint,25,stimuli/house1.png,stimuli/blue-red.png,regular,steady,a,a,0.3432008996605873,1,20
3,26,m,1,3,3,changepoint,26,stimuli/house2.png,stimuli/blue-red.png,regular,steady,l,l,0.47674120031297207,1,21
3,26,m,1,3,3,changepoint,27,stimuli/house1.png,stimuli/blue-red.png,regular,steady,a,l,0.4160393998026848,0,21
3,26,m,1,3,3,changepoint,28,stimuli/house2.png,stimuli/red-blue.png,regular,steady,a,a,0.3816603999584913,1,22
3,26,m,1,3,3,changepoint,29,stimuli/house2.png,stimuli/blue-red.png,oddball,switch,a,l,0.4276095014065504,0,22
3,26,m,1,3,3,changepoint,30,stimuli/house2.png,stimuli/red-blue.png,oddball,steady,l,l,0.4340528007596731,1,23
3,26,m,1,3,3,changepoint,31,stimuli/house2.png,stimuli/red-blue.png,oddball,steady,l,l,0.37804580107331276,1,24
3,26,m,1,3,3,changepoint,32,stimuli/house2.png,stimuli/red-blue.png,regular,switch,a,l,0.3814350999891758,0,24
3,26,m,1,3,3,changepoint,33,stimuli/house2.png,stimuli/blue-red.png,regular,steady,l,l,0.3923015985637903,1,25
3,26,m,1,3,3,changepoint,34,stimuli/house1.png,stimuli/blue-red.png,regular,steady,a,a,0.34958089888095856,1,26
3,26,m,1,3,3,changepoint,35,stimuli/house1.png,stimuli/red-blue.png,regular,steady,l,a,0.546857200562954,0,26
3,26,m,1,3,3,changepoint,36,stimuli/house1.png,stimuli/blue-red.png,oddball,switch,l,a,0.3737614005804062,0,26
3,26,m,1,3,3,changepoint,37,stimuli/house2.png,stimuli/blue-red.png,oddball,steady,a,a,0.3107353001832962,1,27
3,26,m,1,3,3,changepoint,38,stimuli/house1.png,stimuli/red-blue.png,oddball,steady,a,a,0.3658855985850096,1,28
3,26,m,1,3,3,changepoint,39,stimuli/house1.png,stimuli/red-blue.png,oddball,steady,a,a,0.40192229859530926,1,29
3,26,m,1,3,3,changepoint,40,stimuli/house1.png,stimuli/red-blue.png,oddball,steady,a,a,0.3386776000261307,1,30
3,26,m,1,3,3,changepoint,41,stimuli/house1.png,stimuli/red-blue.png,regular,switch,l,a,0.36596209928393364,0,30
3,26,m,1,3,3,changepoint,42,stimuli/house2.png,stimuli/red-blue.png,regular,steady,a,a,0.36282119899988174,1,31
3,26,m,1,3,3,changepoint,43,stimuli/house2.png,stimuli/blue-red.png,regular,steady,l,l,0.42381440103054047,1,32
3,26,m,1,3,3,changepoint,44,stimuli/house1.png,stimuli/blue-red.png,regular,steady,a,a,0.3240534011274576,1,33
3,26,m,1,3,3,changepoint,45,stimuli/house1.png,stimuli/blue-red.png,regular,steady,a,a,0.37438590079545975,1,34
3,26,m,1,3,3,changepoint,46,stimuli/house1.png,stimuli/blue-red.png,oddball,switch,l,NA,NA,0,34
3,26,m,1,3,3,changepoint,47,stimuli/house2.png,stimuli/blue-red.png,oddball,steady,a,l,0.4258184991776943,0,34
3,26,m,1,3,3,changepoint,48,stimuli/house1.png,stimuli/red-blue.png,oddball,steady,a,a,0.3594911005347967,1,35
3,26,m,1,3,3,changepoint,49,stimuli/house1.png,stimuli/red-blue.png,oddball,steady,a,a,0.42404109984636307,1,36
3,26,m,1,3,3,changepoint,50,stimuli/house1.png,stimuli/blue-red.png,regular,switch,a,l,0.39623969979584217,0,36
3,26,m,1,3,3,changepoint,51,stimuli/house1.png,stimuli/blue-red.png,regular,steady,a,a,0.42296920157969,1,37
3,26,m,1,3,3,changepoint,52,stimuli/house1.png,stimuli/blue-red.png,regular,steady,a,a,0.3275805003941059,1,38
3,26,m,1,3,3,changepoint,53,stimuli/house2.png,stimuli/blue-red.png,regular,steady,l,l,0.34233110025525093,1,39
3,26,m,1,3,3,changepoint,54,stimuli/house1.png,stimuli/red-blue.png,regular,steady,l,a,0.4730783998966217,0,39
3,26,m,1,3,3,changepoint,55,stimuli/house2.png,stimuli/blue-red.png,regular,steady,l,a,0.4482661001384258,0,39
3,26,m,1,3,3,changepoint,56,stimuli/house1.png,stimuli/red-blue.png,oddball,switch,a,l,0.5651523005217314,0,39
3,26,m,1,3,3,changepoint,57,stimuli/house1.png,stimuli/red-blue.png,oddball,steady,a,l,0.5010253004729748,0,39
3,26,m,1,3,3,changepoint,58,stimuli/house2.png,stimuli/blue-red.png,oddball,steady,a,a,0.4233049005270004,1,40
3,26,m,1,3,3,changepoint,59,stimuli/house2.png,stimuli/red-blue.png,oddball,steady,l,l,0.34614369831979275,1,41
3,26,m,1,3,4,oddball1,1,house2,blue-red,regular,NA,l,a,0.6721315011382103,0,0
3,26,m,1,3,4,oddball1,2,house1,red-blue,regular,NA,l,l,0.37737689912319183,1,1
3,26,m,1,3,4,oddball1,3,house2,red-blue,regular,NA,a,a,0.3989260997623205,1,2
3,26,m,1,3,4,oddball1,4,house1,red-blue,regular,NA,l,l,0.32673050090670586,1,3
3,26,m,1,3,4,oddball1,5,house2,red-blue,regular,NA,a,a,0.3210733998566866,1,4
3,26,m,1,3,4,oddball1,6,house2,blue-red,oddball,NA,a,l,0.593809399753809,0,4
3,26,m,1,3,4,oddball1,7,house1,red-blue,regular,NA,l,l,0.3605220001190901,1,5
3,26,m,1,3,4,oddball1,8,house2,blue-red,regular,NA,l,l,0.35744629986584187,1,6
3,26,m,1,3,4,oddball1,9,house2,red-blue,oddball,NA,l,a,0.44015049934387207,0,6
3,26,m,1,3,4,oddball1,10,house2,red-blue,regular,NA,a,a,0.4068537000566721,1,7
3,26,m,1,3,4,oddball1,11,house2,blue-red,regular,NA,l,l,0.448488499969244,1,8
3,26,m,1,3,4,oddball1,12,house2,blue-red,regular,NA,l,l,0.366906201466918,1,9
3,26,m,1,3,4,oddball1,13,house2,blue-red,oddball,NA,a,l,0.381275299936533,0,9
3,26,m,1,3,4,oddball1,14,house1,blue-red,regular,NA,a,a,0.41116949915885925,1,10
3,26,m,1,3,4,oddball1,15,house2,red-blue,regular,NA,a,a,0.3417443986982107,1,11
3,26,m,1,3,4,oddball1,16,house1,blue-red,regular,NA,a,a,0.3444870002567768,1,12
3,26,m,1,3,4,oddball1,17,house1,blue-red,oddball,NA,l,a,0.45470420084893703,0,12
3,26,m,1,3,4,oddball1,18,house1,red-blue,regular,NA,l,a,0.5030281003564596,0,12
3,26,m,1,3,4,oddball1,19,house1,blue-red,regular,NA,a,a,0.505486499518156,1,13
3,26,m,1,3,4,oddball1,20,house2,red-blue,regular,NA,a,a,0.48922809958457947,1,14
3,26,m,1,3,4,oddball1,21,house2,red-blue,oddball,NA,l,a,0.3861709013581276,0,14
3,26,m,1,3,4,oddball1,22,house1,blue-red,regular,NA,a,l,0.5544057991355658,0,14
3,26,m,1,3,4,oddball1,23,house1,red-blue,regular,NA,l,a,0.403490100055933,0,14
3,26,m,1,3,4,oddball1,24,house1,red-blue,regular,NA,l,l,0.4631350990384817,1,15
3,26,m,1,3,4,oddball1,25,house2,blue-red,oddball,NA,a,l,0.4728829003870487,0,15
3,26,m,1,3,4,oddball1,26,house1,blue-red,regular,NA,a,a,0.3772718012332916,1,16
3,26,m,1,3,4,oddball1,27,house2,red-blue,regular,NA,a,l,0.5903791002929211,0,16
3,26,m,1,3,4,oddball1,28,house1,blue-red,regular,NA,a,a,0.4663428012281656,1,17
3,26,m,1,3,4,oddball1,29,house1,blue-red,regular,NA,a,a,0.5405382998287678,1,18
3,26,m,1,3,4,oddball1,30,house2,blue-red,regular,NA,l,l,0.43828519992530346,1,19
3,26,m,1,3,5,oddball2,1,house1,blue-red,regular,NA,l,l,0.39371309988200665,1,1
3,26,m,1,3,5,oddball2,2,house1,blue-red,regular,NA,l,l,0.3922418002039194,1,2
3,26,m,1,3,5,oddball2,3,house1,red-blue,oddball,NA,l,a,0.3624906986951828,0,2
3,26,m,1,3,5,oddball2,4,house1,blue-red,regular,NA,l,l,0.3644186984747648,1,3
3,26,m,1,3,5,oddball2,5,house2,red-blue,regular,NA,l,l,0.3994628991931677,1,4
3,26,m,1,3,5,oddball2,6,house2,red-blue,oddball,NA,a,l,0.39736970141530037,0,4
3,26,m,1,3,5,oddball2,7,house1,red-blue,regular,NA,a,a,0.38002390041947365,1,5
3,26,m,1,3,5,oddball2,8,house1,red-blue,regular,NA,a,a,0.3670569993555546,1,6
3,26,m,1,3,5,oddball2,9,house2,blue-red,regular,NA,a,a,0.33845390006899834,1,7
3,26,m,1,3,5,oddball2,10,house1,blue-red,regular,NA,l,l,0.442535400390625,1,8
3,26,m,1,3,5,oddball2,11,house2,blue-red,regular,NA,a,a,0.3458072002977133,1,9
3,26,m,1,3,5,oddball2,12,house2,blue-red,oddball,NA,l,a,0.33343989960849285,0,9
3,26,m,1,3,5,oddball2,13,house1,blue-red,regular,NA,l,l,0.3799808006733656,1,10
3,26,m,1,3,5,oddball2,14,house1,blue-red,regular,NA,l,l,0.47235949896275997,1,11
3,26,m,1,3,5,oddball2,15,house2,red-blue,oddball,NA,a,l,0.4172572009265423,0,11
3,26,m,1,3,5,oddball2,16,house2,blue-red,regular,NA,a,a,0.34327719919383526,1,12
3,26,m,1,3,5,oddball2,17,house2,red-blue,regular,NA,l,l,0.49361429922282696,1,13
3,26,m,1,3,5,oddball2,18,house2,red-blue,regular,NA,l,l,0.42584470100700855,1,14
3,26,m,1,3,5,oddball2,19,house1,blue-red,regular,NA,l,l,0.44829170033335686,1,15
3,26,m,1,3,5,oddball2,20,house1,red-blue,regular,NA,a,a,0.3404693007469177,1,16
3,26,m,1,3,5,oddball2,21,house2,red-blue,oddball,NA,a,l,0.42298940010368824,0,16
3,26,m,1,3,5,oddball2,22,house1,red-blue,regular,NA,a,a,0.4905519001185894,1,17
3,26,m,1,3,5,oddball2,23,house2,blue-red,regular,NA,a,a,0.3609907999634743,1,18
3,26,m,1,3,5,oddball2,24,house1,red-blue,oddball,NA,l,a,0.3956320006400347,0,18
3,26,m,1,3,5,oddball2,25,house2,red-blue,regular,NA,l,l,0.5317770000547171,1,19
3,26,m,1,3,5,oddball2,26,house2,blue-red,regular,NA,a,a,0.44719049893319607,1,20
3,26,m,1,3,5,oddball2,27,house2,red-blue,regular,NA,l,l,0.4859758988022804,1,21
3,26,m,1,3,5,oddball2,28,house1,blue-red,regular,NA,l,l,0.4200206007808447,1,22
3,26,m,1,3,5,oddball2,29,house2,blue-red,regular,NA,a,a,0.35078409872949123,1,23
3,26,m,1,3,5,oddball2,30,house1,red-blue,regular,NA,a,a,0.6144107989966869,1,24
3,26,m,1,3,6,changepoint,1,stimuli/house1.png,stimuli/red-blue.png,regular,steady,l,a,0.31441220082342625,0,0
3,26,m,1,3,6,changepoint,2,stimuli/house1.png,stimuli/red-blue.png,regular,steady,l,l,0.4616391994059086,1,1
3,26,m,1,3,6,changepoint,3,stimuli/house2.png,stimuli/red-blue.png,regular,steady,a,a,0.35483350045979023,1,2
3,26,m,1,3,6,changepoint,4,stimuli/house2.png,stimuli/blue-red.png,regular,steady,l,l,0.35701180063188076,1,3
3,26,m,1,3,6,changepoint,5,stimuli/house2.png,stimuli/blue-red.png,regular,steady,l,l,0.3896083999425173,1,4
3,26,m,1,3,6,changepoint,6,stimuli/house1.png,stimuli/blue-red.png,regular,steady,a,l,0.5171850994229317,0,4
3,26,m,1,3,6,changepoint,7,stimuli/house1.png,stimuli/red-blue.png,regular,steady,l,l,0.3743946012109518,1,5
3,26,m,1,3,6,changepoint,8,stimuli/house1.png,stimuli/blue-red.png,oddball,switch,l,a,0.3482943996787071,0,5
3,26,m,1,3,6,changepoint,9,stimuli/house2.png,stimuli/red-blue.png,oddball,steady,l,l,0.38619039952754974,1,6
3,26,m,1,3,6,changepoint,10,stimuli/house1.png,stimuli/blue-red.png,oddball,steady,l,l,0.40283709950745106,1,7
3,26,m,1,3,6,changepoint,11,stimuli/house2.png,stimuli/red-blue.png,oddball,steady,l,l,0.3763622008264065,1,8
3,26,m,1,3,6,changepoint,12,stimuli/house1.png,stimuli/red-blue.png,oddball,steady,a,a,0.3735655006021261,1,9
3,26,m,1,3,6,changepoint,13,stimuli/house2.png,stimuli/blue-red.png,oddball,steady,a,a,0.36540129967033863,1,10
3,26,m,1,3,6,changepoint,14,stimuli/house1.png,stimuli/red-blue.png,regular,switch,l,a,0.39223730005323887,0,10
3,26,m,1,3,6,changepoint,15,stimuli/house1.png,stimuli/red-blue.png,regular,steady,l,l,0.46321310102939606,1,11
3,26,m,1,3,6,changepoint,16,stimuli/house1.png,stimuli/blue-red.png,regular,steady,a,a,0.34355640038847923,1,12
3,26,m,1,3,6,changepoint,17,stimuli/house1.png,stimuli/red-blue.png,regular,steady,l,l,0.34302249923348427,1,13
3,26,m,1,3,6,changepoint,18,stimuli/house2.png,stimuli/red-blue.png,oddball,switch,l,a,0.31644850037992,0,13
3,26,m,1,3,6,changepoint,19,stimuli/house1.png,stimuli/blue-red.png,oddball,steady,l,a,0.3562458008527756,0,13
3,26,m,1,3,6,changepoint,20,stimuli/house1.png,stimuli/red-blue.png,oddball,steady,a,a,0.4030935000628233,1,14
3,26,m,1,3,6,changepoint,21,stimuli/house1.png,stimuli/blue-red.png,oddball,steady,l,l,0.4029959011822939,1,15
3,26,m,1,3,6,changepoint,22,stimuli/house1.png,stimuli/red-blue.png,oddball,steady,a,a,0.36515319906175137,1,16
3,26,m,1,3,6,changepoint,23,stimuli/house2.png,stimuli/blue-red.png,regular,switch,l,a,0.36518390104174614,0,16
3,26,m,1,3,6,changepoint,24,stimuli/house2.png,stimuli/blue-red.png,regular,steady,l,l,0.43988680094480515,1,17
3,26,m,1,3,6,changepoint,25,stimuli/house1.png,stimuli/blue-red.png,regular,steady,a,a,0.3880078997462988,1,18
3,26,m,1,3,6,changepoint,26,stimuli/house2.png,stimuli/red-blue.png,regular,steady,a,a,0.37981880083680153,1,19
3,26,m,1,3,6,changepoint,27,stimuli/house2.png,stimuli/blue-red.png,regular,steady,l,l,0.48358350060880184,1,20
3,26,m,1,3,6,changepoint,28,stimuli/house2.png,stimuli/red-blue.png,regular,steady,a,a,0.3645060993731022,1,21
3,26,m,1,3,6,changepoint,29,stimuli/house1.png,stimuli/red-blue.png,oddball,switch,a,l,0.5887612998485565,0,21
3,26,m,1,3,6,changepoint,30,stimuli/house1.png,stimuli/red-blue.png,oddball,steady,a,a,0.3533989004790783,1,22
3,26,m,1,3,6,changepoint,31,stimuli/house1.png,stimuli/blue-red.png,oddball,steady,l,l,0.42081370018422604,1,23
3,26,m,1,3,6,changepoint,32,stimuli/house1.png,stimuli/blue-red.png,oddball,steady,l,l,0.5062608998268843,1,24
3,26,m,1,3,6,changepoint,33,stimuli/house2.png,stimuli/red-blue.png,regular,switch,a,l,0.46326890029013157,0,24
3,26,m,1,3,6,changepoint,34,stimuli/house1.png,stimuli/blue-red.png,regular,steady,a,l,0.5099065992981195,0,24
3,26,m,1,3,6,changepoint,35,stimuli/house1.png,stimuli/blue-red.png,regular,steady,a,a,0.6200890000909567,1,25
3,26,m,1,3,6,changepoint,36,stimuli/house1.png,stimuli/red-blue.png,regular,steady,l,l,0.3817631006240845,1,26
3,26,m,1,3,6,changepoint,37,stimuli/house2.png,stimuli/red-blue.png,oddball,switch,l,l,0.5511255990713835,1,27
3,26,m,1,3,6,changepoint,38,stimuli/house1.png,stimuli/red-blue.png,oddball,steady,a,a,0.34003050066530704,1,28
3,26,m,1,3,6,changepoint,39,stimuli/house1.png,stimuli/red-blue.png,oddball,steady,a,a,0.34993569925427437,1,29
3,26,m,1,3,6,changepoint,40,stimuli/house1.png,stimuli/red-blue.png,oddball,steady,a,a,0.3661022000014782,1,30
3,26,m,1,3,6,changepoint,41,stimuli/house1.png,stimuli/blue-red.png,oddball,steady,l,l,0.4243075009435415,1,31
3,26,m,1,3,6,changepoint,42,stimuli/house1.png,stimuli/blue-red.png,regular,switch,a,l,0.46918080002069473,0,31
3,26,m,1,3,6,changepoint,43,stimuli/house1.png,stimuli/blue-red.png,regular,steady,a,a,0.3535766005516052,1,32
3,26,m,1,3,6,changepoint,44,stimuli/house2.png,stimuli/blue-red.png,regular,steady,l,l,0.3447354007512331,1,33
3,26,m,1,3,6,changepoint,45,stimuli/house2.png,stimuli/blue-red.png,oddball,switch,a,l,0.3320633005350828,0,33
3,26,m,1,3,6,changepoint,46,stimuli/house1.png,stimuli/red-blue.png,oddball,steady,a,NA,-0.8089796993881464,0,33
3,26,m,1,3,6,changepoint,47,stimuli/house1.png,stimuli/red-blue.png,oddball,steady,a,l,0.40679450146853924,0,33
3,26,m,1,3,6,changepoint,48,stimuli/house1.png,stimuli/blue-red.png,oddball,steady,l,NA,NA,0,33
3,26,m,1,3,6,changepoint,49,stimuli/house1.png,stimuli/blue-red.png,regular,switch,a,l,0.4100919999182224,0,33
3,26,m,1,3,6,changepoint,50,stimuli/house2.png,stimuli/blue-red.png,regular,steady,l,l,0.40756369940936565,1,34
3,26,m,1,3,6,changepoint,51,stimuli/house1.png,stimuli/blue-red.png,regular,steady,a,a,0.516245199367404,1,35
3,26,m,1,3,6,changepoint,52,stimuli/house1.png,stimuli/red-blue.png,regular,steady,l,l,0.3749819006770849,1,36
3,26,m,1,3,6,changepoint,53,stimuli/house1.png,stimuli/blue-red.png,regular,steady,a,a,0.374142000451684,1,37
3,26,m,1,3,6,changepoint,54,stimuli/house2.png,stimuli/red-blue.png,oddball,switch,l,NA,NA,0,37
3,26,m,1,3,6,changepoint,55,stimuli/house2.png,stimuli/red-blue.png,oddball,steady,l,a,0.3456637989729643,0,37
3,26,m,1,3,6,changepoint,56,stimuli/house1.png,stimuli/blue-red.png,oddball,steady,l,NA,-0.8477301001548767,0,37
3,26,m,1,3,6,changepoint,57,stimuli/house1.png,stimuli/red-blue.png,oddball,steady,a,a,0.35320149920880795,1,38
3,26,m,1,3,6,changepoint,58,stimuli/house1.png,stimuli/blue-red.png,oddball,steady,l,l,0.3755121994763613,1,39
3,26,m,1,3,6,changepoint,59,stimuli/house1.png,stimuli/blue-red.png,regular,switch,a,l,0.3820706997066736,0,39
3,26,m,1,3,6,changepoint,60,stimuli/house2.png,stimuli/blue-red.png,regular,steady,l,l,0.5126456990838051,1,40
3,26,m,1,3,7,oddball1,1,house1,red-blue,oddball,NA,a,NA,NA,0,0
3,26,m,1,3,7,oddball1,2,house2,blue-red,regular,NA,l,a,0.3382879011332989,0,0
3,26,m,1,3,7,oddball1,3,house2,blue-red,regular,NA,l,l,0.40142920054495335,1,1
3,26,m,1,3,7,oddball1,4,house1,blue-red,regular,NA,a,a,0.36417880095541477,1,2
3,26,m,1,3,7,oddball1,5,house2,blue-red,oddball,NA,a,l,0.3000103998929262,0,2
3,26,m,1,3,7,oddball1,6,house1,blue-red,regular,NA,a,a,0.3239830993115902,1,3
3,26,m,1,3,7,oddball1,7,house2,blue-red,regular,NA,l,l,0.32592349871993065,1,4
3,26,m,1,3,7,oddball1,8,house1,blue-red,regular,NA,a,a,0.29938559979200363,1,5
3,26,m,1,3,7,oddball1,9,house1,red-blue,regular,NA,l,l,0.6769856996834278,1,6
3,26,m,1,3,7,oddball1,10,house2,red-blue,regular,NA,a,a,0.31273810006678104,1,7
3,26,m,1,3,7,oddball1,11,house1,blue-red,regular,NA,a,a,0.43099440075457096,1,8
3,26,m,1,3,7,oddball1,12,house1,blue-red,regular,NA,a,a,0.3502037990838289,1,9
3,26,m,1,3,7,oddball1,13,house1,red-blue,oddball,NA,a,l,0.37855220027267933,0,9
3,26,m,1,3,7,oddball1,14,house2,red-blue,regular,NA,a,a,0.44906099885702133,1,10
3,26,m,1,3,7,oddball1,15,house1,blue-red,regular,NA,a,a,0.4755591005086899,1,11
3,26,m,1,3,7,oddball1,16,house2,red-blue,regular,NA,a,a,0.3554912004619837,1,12
3,26,m,1,3,7,oddball1,17,house1,red-blue,regular,NA,l,l,0.4332846011966467,1,13
3,26,m,1,3,7,oddball1,18,house1,red-blue,oddball,NA,a,l,0.6548245009034872,0,13
3,26,m,1,3,7,oddball1,19,house2,red-blue,regular,NA,a,a,0.47102930024266243,1,14
3,26,m,1,3,7,oddball1,20,house2,red-blue,regular,NA,a,a,0.4103299006819725,1,15
3,26,m,1,3,7,oddball1,21,house2,blue-red,oddball,NA,a,l,0.4822211004793644,0,15
3,26,m,1,3,7,oddball1,22,house2,red-blue,regular,NA,a,a,0.4982227999716997,1,16
3,26,m,1,3,7,oddball1,23,house2,blue-red,regular,NA,l,l,0.3214800003916025,1,17
3,26,m,1,3,7,oddball1,24,house1,red-blue,oddball,NA,a,l,0.6049520000815392,0,17
3,26,m,1,3,7,oddball1,25,house2,blue-red,regular,NA,l,l,0.5262100994586945,1,18
3,26,m,1,3,7,oddball1,26,house2,blue-red,regular,NA,l,l,0.5535781998187304,1,19
3,26,m,1,3,7,oddball1,27,house1,blue-red,regular,NA,a,a,0.4283256009221077,1,20
3,26,m,1,3,7,oddball1,28,house2,blue-red,regular,NA,l,l,0.38350109942257404,1,21
3,26,m,1,3,7,oddball1,29,house2,red-blue,regular,NA,a,a,0.4466820005327463,1,22
3,26,m,1,3,7,oddball1,30,house2,red-blue,regular,NA,a,l,0.5233663991093636,0,22
3,26,m,1,3,8,oddball2,1,house2,red-blue,regular,NA,l,l,0.33762100152671337,1,1
3,26,m,1,3,8,oddball2,2,house1,red-blue,regular,NA,a,a,0.3964984994381666,1,2
3,26,m,1,3,8,oddball2,3,house2,blue-red,regular,NA,a,a,0.4577828999608755,1,3
3,26,m,1,3,8,oddball2,4,house1,blue-red,regular,NA,l,l,0.45397210121154785,1,4
3,26,m,1,3,8,oddball2,5,house2,red-blue,oddball,NA,a,l,0.43585729971528053,0,4
3,26,m,1,3,8,oddball2,6,house1,red-blue,regular,NA,a,a,0.540489798411727,1,5
3,26,m,1,3,8,oddball2,7,house1,blue-red,regular,NA,l,l,0.4311682991683483,1,6
3,26,m,1,3,8,oddball2,8,house1,blue-red,regular,NA,l,l,0.5152301006019115,1,7
3,26,m,1,3,8,oddball2,9,house2,red-blue,oddball,NA,a,l,0.47616839967668056,0,7
3,26,m,1,3,8,oddball2,10,house1,blue-red,regular,NA,l,l,0.46430099941790104,1,8
3,26,m,1,3,8,oddball2,11,house2,red-blue,regular,NA,l,l,0.6376287005841732,1,9
3,26,m,1,3,8,oddball2,12,house1,blue-red,oddball,NA,a,l,0.4133483003824949,0,9
3,26,m,1,3,8,oddball2,13,house2,blue-red,regular,NA,a,a,0.33794359862804413,1,10
3,26,m,1,3,8,oddball2,14,house2,blue-red,regular,NA,a,a,0.422732699662447,1,11
3,26,m,1,3,8,oddball2,15,house1,red-blue,regular,NA,a,a,0.40179000049829483,1,12
3,26,m,1,3,8,oddball2,16,house2,blue-red,oddball,NA,l,a,0.4804552011191845,0,12
3,26,m,1,3,8,oddball2,17,house2,red-blue,regular,NA,l,l,0.3684320002794266,1,13
3,26,m,1,3,8,oddball2,18,house2,red-blue,regular,NA,l,l,0.39660000056028366,1,14
3,26,m,1,3,8,oddball2,19,house2,blue-red,oddball,NA,l,a,0.3469353001564741,0,14
3,26,m,1,3,8,oddball2,20,house1,blue-red,regular,NA,l,l,0.4100136011838913,1,15
3,26,m,1,3,8,oddball2,21,house2,red-blue,regular,NA,l,l,0.41193890012800694,1,16
3,26,m,1,3,8,oddball2,22,house1,red-blue,oddball,NA,l,a,0.3829167000949383,0,16
3,26,m,1,3,8,oddball2,23,house1,red-blue,regular,NA,a,a,0.6291664000600576,1,17
3,26,m,1,3,8,oddball2,24,house2,blue-red,regular,NA,a,a,0.33033889904618263,1,18
3,26,m,1,3,8,oddball2,25,house1,red-blue,regular,NA,a,a,0.33956849947571754,1,19
3,26,m,1,3,8,oddball2,26,house2,red-blue,regular,NA,l,l,0.43325010128319263,1,20
3,26,m,1,3,8,oddball2,27,house1,blue-red,regular,NA,l,l,0.4474429003894329,1,21
3,26,m,1,3,8,oddball2,28,house1,red-blue,regular,NA,a,a,0.3941200990229845,1,22
3,26,m,1,3,8,oddball2,29,house2,blue-red,regular,NA,a,a,0.45034549944102764,1,23
3,26,m,1,3,8,oddball2,30,house1,blue-red,regular,NA,l,l,0.41317589953541756,1,24
3,26,m,1,3,9,changepoint,1,stimuli/house2.png,stimuli/red-blue.png,regular,switch,a,a,0.5011597014963627,1,1
3,26,m,1,3,9,changepoint,2,stimuli/house2.png,stimuli/red-blue.png,regular,steady,a,a,0.3981008995324373,1,2
3,26,m,1,3,9,changepoint,3,stimuli/house2.png,stimuli/red-blue.png,regular,steady,a,a,0.35258919931948185,1,3
3,26,m,1,3,9,changepoint,4,stimuli/house2.png,stimuli/blue-red.png,oddball,switch,a,l,0.4246025010943413,0,3
3,26,m,1,3,9,changepoint,5,stimuli/house2.png,stimuli/blue-red.png,oddball,steady,a,a,0.4874703995883465,1,4
3,26,m,1,3,9,changepoint,6,stimuli/house2.png,stimuli/blue-red.png,oddball,steady,a,a,0.3795584999024868,1,5
3,26,m,1,3,9,changepoint,7,stimuli/house1.png,stimuli/red-blue.png,oddball,steady,a,a,0.391864899545908,1,6
3,26,m,1,3,9,changepoint,8,stimuli/house2.png,stimuli/blue-red.png,regular,switch,l,a,0.39559970051050186,0,6
3,26,m,1,3,9,changepoint,9,stimuli/house2.png,stimuli/red-blue.png,regular,steady,a,l,0.5497066993266344,0,6
3,26,m,1,3,9,changepoint,10,stimuli/house2.png,stimuli/blue-red.png,regular,steady,l,l,0.4471761994063854,1,7
3,26,m,1,3,9,changepoint,11,stimuli/house1.png,stimuli/red-blue.png,regular,steady,l,l,0.44371489994227886,1,8
3,26,m,1,3,9,changepoint,12,stimuli/house1.png,stimuli/red-blue.png,oddball,switch,a,l,0.3869580999016762,0,8
3,26,m,1,3,9,changepoint,13,stimuli/house1.png,stimuli/blue-red.png,oddball,steady,l,l,0.5067983008921146,1,9
3,26,m,1,3,9,changepoint,14,stimuli/house1.png,stimuli/red-blue.png,oddball,steady,a,a,0.3392565995454788,1,10
3,26,m,1,3,9,changepoint,15,stimuli/house1.png,stimuli/red-blue.png,oddball,steady,a,a,0.41080489940941334,1,11
3,26,m,1,3,9,changepoint,16,stimuli/house2.png,stimuli/blue-red.png,oddball,steady,a,a,0.3623481001704931,1,12
3,26,m,1,3,9,changepoint,17,stimuli/house2.png,stimuli/red-blue.png,oddball,steady,l,l,0.5833828002214432,1,13
3,26,m,1,3,9,changepoint,18,stimuli/house1.png,stimuli/red-blue.png,regular,switch,l,a,0.3654163982719183,0,13
3,26,m,1,3,9,changepoint,19,stimuli/house1.png,stimuli/blue-red.png,regular,steady,a,a,0.40985729917883873,1,14
3,26,m,1,3,9,changepoint,20,stimuli/house1.png,stimuli/red-blue.png,regular,steady,l,l,0.5131576992571354,1,15
3,26,m,1,3,9,changepoint,21,stimuli/house1.png,stimuli/blue-red.png,regular,steady,a,a,0.42853409983217716,1,16
3,26,m,1,3,9,changepoint,22,stimuli/house1.png,stimuli/red-blue.png,regular,steady,l,l,0.392009099945426,1,17
3,26,m,1,3,9,changepoint,23,stimuli/house1.png,stimuli/blue-red.png,oddball,switch,l,a,0.3331530001014471,0,17
3,26,m,1,3,9,changepoint,24,stimuli/house2.png,stimuli/blue-red.png,oddball,steady,a,a,0.5233933012932539,1,18
3,26,m,1,3,9,changepoint,25,stimuli/house2.png,stimuli/blue-red.png,oddball,steady,a,a,0.36855039931833744,1,19
3,26,m,1,3,9,changepoint,26,stimuli/house1.png,stimuli/red-blue.png,oddball,steady,a,a,0.5555052999407053,1,20
3,26,m,1,3,9,changepoint,27,stimuli/house1.png,stimuli/blue-red.png,oddball,steady,l,l,0.4160182997584343,1,21
3,26,m,1,3,9,changepoint,28,stimuli/house2.png,stimuli/red-blue.png,oddball,steady,l,l,0.37368519976735115,1,22
3,26,m,1,3,9,changepoint,29,stimuli/house2.png,stimuli/red-blue.png,regular,switch,a,l,0.4739874992519617,0,22
3,26,m,1,3,9,changepoint,30,stimuli/house1.png,stimuli/red-blue.png,regular,steady,l,l,0.39399739913642406,1,23
3,26,m,1,3,9,changepoint,31,stimuli/house2.png,stimuli/blue-red.png,regular,steady,l,l,0.39943440072238445,1,24
3,26,m,1,3,9,changepoint,32,stimuli/house1.png,stimuli/blue-red.png,regular,steady,a,a,0.3647860996425152,1,25
3,26,m,1,3,9,changepoint,33,stimuli/house1.png,stimuli/red-blue.png,oddball,switch,a,l,0.5438850000500679,0,25
3,26,m,1,3,9,changepoint,34,stimuli/house1.png,stimuli/blue-red.png,oddball,steady,l,l,0.3528123013675213,1,26
3,26,m,1,3,9,changepoint,35,stimuli/house1.png,stimuli/blue-red.png,oddball,steady,l,l,0.3996200002729893,1,27
3,26,m,1,3,9,changepoint,36,stimuli/house1.png,stimuli/red-blue.png,oddball,steady,a,a,0.39673230051994324,1,28
3,26,m,1,3,9,changepoint,37,stimuli/house2.png,stimuli/red-blue.png,regular,switch,a,l,0.4275417998433113,0,28
3,26,m,1,3,9,changepoint,38,stimuli/house1.png,stimuli/red-blue.png,regular,steady,l,l,0.3927710000425577,1,29
3,26,m,1,3,9,changepoint,39,stimuli/house2.png,stimuli/red-blue.png,regular,steady,a,a,0.44022939912974834,1,30
3,26,m,1,3,9,changepoint,40,stimuli/house2.png,stimuli/red-blue.png,regular,steady,a,a,0.368784099817276,1,31
3,26,m,1,3,9,changepoint,41,stimuli/house1.png,stimuli/blue-red.png,regular,steady,a,a,0.45302299968898296,1,32
3,26,m,1,3,9,changepoint,42,stimuli/house2.png,stimuli/blue-red.png,oddball,switch,a,l,0.43318819999694824,0,32
3,26,m,1,3,9,changepoint,43,stimuli/house1.png,stimuli/blue-red.png,oddball,steady,l,l,0.3605059999972582,1,33
3,26,m,1,3,9,changepoint,44,stimuli/house2.png,stimuli/blue-red.png,oddball,steady,a,a,0.35003829933702946,1,34
3,26,m,1,3,9,changepoint,45,stimuli/house2.png,stimuli/blue-red.png,oddball,steady,a,a,0.317382100969553,1,35
3,26,m,1,3,9,changepoint,46,stimuli/house1.png,stimuli/red-blue.png,oddball,steady,a,a,0.4420580007135868,1,36
3,26,m,1,3,9,changepoint,47,stimuli/house2.png,stimuli/red-blue.png,oddball,steady,l,l,0.40752070024609566,1,37
3,26,m,1,3,9,changepoint,48,stimuli/house2.png,stimuli/blue-red.png,regular,switch,l,a,0.37452759966254234,0,37
3,26,m,1,3,9,changepoint,49,stimuli/house2.png,stimuli/blue-red.png,regular,steady,l,l,0.5691030994057655,1,38
3,26,m,1,3,9,changepoint,50,stimuli/house2.png,stimuli/blue-red.png,regular,steady,l,l,0.3537853993475437,1,39
3,26,m,1,3,9,changepoint,51,stimuli/house1.png,stimuli/blue-red.png,regular,steady,a,a,0.3266032002866268,1,40
3,26,m,1,3,9,changepoint,52,stimuli/house2.png,stimuli/red-blue.png,oddball,switch,l,l,0.4470556005835533,1,41
3,26,m,1,3,9,changepoint,53,stimuli/house1.png,stimuli/blue-red.png,oddball,steady,l,l,0.3644045013934374,1,42
3,26,m,1,3,9,changepoint,54,stimuli/house2.png,stimuli/red-blue.png,oddball,steady,l,l,0.5097605995833874,1,43
3,26,m,1,3,9,changepoint,55,stimuli/house2.png,stimuli/red-blue.png,oddball,steady,l,l,0.5170676000416279,1,44
3,26,m,1,3,9,changepoint,56,stimuli/house2.png,stimuli/blue-red.png,oddball,steady,a,a,0.364520700648427,1,45
3,26,m,1,3,9,changepoint,57,stimuli/house2.png,stimuli/red-blue.png,oddball,steady,l,l,0.4560585003346205,1,46
3,26,m,1,3,9,changepoint,58,stimuli/house2.png,stimuli/blue-red.png,regular,switch,l,a,0.3551807012408972,0,46
3,26,m,1,3,9,changepoint,59,stimuli/house1.png,stimuli/blue-red.png,regular,steady,a,l,0.43116859905421734,0,46
3,26,m,1,3,9,changepoint,60,stimuli/house1.png,stimuli/blue-red.png,regular,steady,a,a,0.49549249932169914,1,47
