id,age,sex,cb,order,block,part,trial,cue,buses_order,trans_type,surprise,ans,response,RT,ACC,performance
4,28,male,2,1,practice_no_timeout,association1,1,house2,red-blue,regular,NA,a,a,0.706444401293993,1
4,28,male,2,1,practice_no_timeout,association1,2,house1,red-blue,regular,NA,l,l,0.4159247986972332,1
4,28,male,2,1,practice_no_timeout,association1,3,house2,blue-red,regular,NA,l,l,0.3795482013374567,1
4,28,male,2,1,practice_no_timeout,association1,4,house1,blue-red,regular,NA,a,a,0.29960450157523155,1
4,28,male,2,1,practice_no_timeout,association1,5,house1,blue-red,regular,NA,a,a,0.6003150008618832,1
4,28,male,2,1,practice_no_timeout,association1,6,house2,blue-red,regular,NA,l,l,0.3613408990204334,1
4,28,male,2,1,practice_no_timeout,association1,7,house1,red-blue,regular,NA,l,l,0.4638104997575283,1
4,28,male,2,1,practice,association1_timepres,1,house2,blue-red,regular,NA,l,a,0.2601059004664421,0
4,28,male,2,1,practice,association1_timepres,2,house2,blue-red,regular,NA,l,l,0.2516736015677452,1
4,28,male,2,1,practice,association1_timepres,3,house2,red-blue,regular,NA,a,a,0.25091860070824623,1
4,28,male,2,1,practice,association1_timepres,4,house2,blue-red,regular,NA,l,l,0.25090100057423115,1
4,28,male,2,1,practice,association1_timepres,5,house1,blue-red,regular,NA,a,a,0.6212932001799345,1
4,28,male,2,1,practice,association1_timepres,6,house1,blue-red,regular,NA,a,a,0.2161389011889696,1
4,28,male,2,1,practice,association1_timepres,7,house2,red-blue,regular,NA,a,a,0.14989730156958103,1
4,28,male,2,1,practice_no_timeout,association2,1,house1,blue-red,regular,NA,l,a,0.6316766012459993,0
4,28,male,2,1,practice_no_timeout,association2,2,house1,red-blue,regular,NA,a,a,0.7874691002070904,1
4,28,male,2,1,practice_no_timeout,association2,3,house1,blue-red,regular,NA,l,l,0.2897444013506174,1
4,28,male,2,1,practice_no_timeout,association2,4,house1,red-blue,regular,NA,a,a,0.22708329930901527,1
4,28,male,2,1,practice_no_timeout,association2,5,house1,blue-red,regular,NA,l,l,0.8054679986089468,1
4,28,male,2,1,practice_no_timeout,association2,6,house2,red-blue,regular,NA,l,l,0.25778700038790703,1
4,28,male,2,1,practice_no_timeout,association2,7,house1,red-blue,regular,NA,a,a,0.2407936006784439,1
4,28,male,2,1,practice,association2_timepres,1,house1,blue-red,regular,NA,l,l,0.4113497994840145,1
4,28,male,2,1,practice,association2_timepres,2,house1,blue-red,regular,NA,l,l,0.2442512009292841,1
4,28,male,2,1,practice,association2_timepres,3,house2,red-blue,regular,NA,l,l,0.3570969011634588,1
4,28,male,2,1,practice,association2_timepres,4,house1,blue-red,regular,NA,l,l,0.45169059932231903,1
4,28,male,2,1,practice,association2_timepres,5,house2,red-blue,regular,NA,l,l,0.38208230026066303,1
4,28,male,2,1,practice,association2_timepres,6,house2,red-blue,regular,NA,l,l,0.5157939996570349,1
4,28,male,2,1,practice,association2_timepres,7,house1,red-blue,regular,NA,a,a,0.7244742009788752,1
4,28,male,2,1,1,changepoint_prac,1,stimuli/house2.png,stimuli/blue-red.png,regular,steady,l,a,0.4082380011677742,0,0
4,28,male,2,1,1,changepoint_prac,2,stimuli/house2.png,stimuli/red-blue.png,regular,steady,a,a,0.3683372996747494,1,1
4,28,male,2,1,1,changepoint_prac,3,stimuli/house2.png,stimuli/blue-red.png,regular,steady,l,l,0.36985139921307564,1,2
4,28,male,2,1,1,changepoint_prac,4,stimuli/house2.png,stimuli/blue-red.png,regular,steady,l,l,0.3883350007236004,1,3
4,28,male,2,1,1,changepoint_prac,5,stimuli/house1.png,stimuli/red-blue.png,regular,steady,l,l,0.6279006991535425,1,4
4,28,male,2,1,1,changepoint_prac,6,stimuli/house2.png,stimuli/red-blue.png,regular,steady,a,a,0.6564517989754677,1,5
4,28,male,2,1,1,changepoint_prac,7,stimuli/house1.png,stimuli/blue-red.png,oddball,switch,l,NA,NA,0,5
4,28,male,2,1,1,changepoint_prac,8,stimuli/house2.png,stimuli/red-blue.png,oddball,steady,l,l,0.510072099044919,1,6
4,28,male,2,1,1,changepoint_prac,9,stimuli/house1.png,stimuli/red-blue.png,oddball,steady,a,a,0.29946859925985336,1,7
4,28,male,2,1,1,changepoint_prac,10,stimuli/house2.png,stimuli/blue-red.png,oddball,steady,a,a,0.3106213007122278,1,8
4,28,male,2,1,1,changepoint_prac,11,stimuli/house1.png,stimuli/red-blue.png,regular,switch,l,a,0.30848960019648075,0,8
4,28,male,2,1,1,changepoint_prac,12,stimuli/house2.png,stimuli/blue-red.png,regular,steady,l,l,0.5115715004503727,1,9
4,28,male,2,1,1,changepoint_prac,13,stimuli/house1.png,stimuli/blue-red.png,regular,steady,a,a,0.3469266016036272,1,10
4,28,male,2,1,1,changepoint_prac,14,stimuli/house1.png,stimuli/red-blue.png,regular,steady,l,l,0.3096313998103142,1,11
4,28,male,2,1,1,changepoint_prac,15,stimuli/house1.png,stimuli/blue-red.png,regular,steady,a,a,0.32605200074613094,1,12
4,28,male,2,1,1,changepoint_prac,16,stimuli/house1.png,stimuli/blue-red.png,regular,steady,a,a,0.5422661006450653,1,13
4,28,male,2,1,1,changepoint_prac,17,stimuli/house2.png,stimuli/red-blue.png,oddball,switch,l,a,0.32225249893963337,0,13
4,28,male,2,1,1,changepoint_prac,18,stimuli/house1.png,stimuli/blue-red.png,oddball,steady,l,l,0.5552292987704277,1,14
4,28,male,2,1,1,changepoint_prac,19,stimuli/house1.png,stimuli/red-blue.png,oddball,steady,a,NA,NA,0,14
4,28,male,2,1,1,changepoint_prac,20,stimuli/house1.png,stimuli/red-blue.png,oddball,steady,a,a,0.34898229874670506,1,15
4,28,male,2,1,1,changepoint_prac,21,stimuli/house2.png,stimuli/red-blue.png,oddball,steady,l,l,0.4857985991984606,1,16
4,28,male,2,1,1,oddball_prac,1,house2,blue-red,oddball,NA,a,a,0.41058529913425446,1,1
4,28,male,2,1,1,oddball_prac,2,house2,red-blue,regular,NA,a,a,0.29834979958832264,1,2
4,28,male,2,1,1,oddball_prac,3,house1,blue-red,regular,NA,a,a,0.2936109993606806,1,3
4,28,male,2,1,1,oddball_prac,4,house2,red-blue,regular,NA,a,a,0.5568572003394365,1,4
4,28,male,2,1,1,oddball_prac,5,house2,blue-red,regular,NA,l,l,0.4178125001490116,1,5
4,28,male,2,1,1,oddball_prac,6,house2,blue-red,regular,NA,l,l,0.3362483996897936,1,6
4,28,male,2,1,1,oddball_prac,7,house1,blue-red,oddball,NA,l,a,0.29534149914979935,0,6
4,28,male,2,1,1,oddball_prac,8,house1,red-blue,regular,NA,l,l,0.28693800047039986,1,7
4,28,male,2,1,1,oddball_prac,9,house2,blue-red,regular,NA,l,l,0.5757509004324675,1,8
4,28,male,2,1,1,oddball_prac,10,house2,blue-red,oddball,NA,a,l,0.38157280161976814,0,8
4,28,male,2,1,1,oddball_prac,11,house1,blue-red,regular,NA,a,a,0.2958626002073288,1,9
4,28,male,2,1,1,oddball_prac,1,house1,blue-red,oddball,NA,a,a,0.37432420067489147,1,1
4,28,male,2,1,1,oddball_prac,2,house2,red-blue,regular,NA,l,a,0.5345825012773275,0,1
4,28,male,2,1,1,oddball_prac,3,house2,red-blue,regular,NA,l,a,0.520821800455451,0,1
4,28,male,2,1,1,oddball_prac,4,house2,red-blue,regular,NA,l,l,0.33357710018754005,1,2
4,28,male,2,1,1,oddball_prac,5,house1,red-blue,oddball,NA,l,a,0.3554899990558624,0,2
4,28,male,2,1,1,oddball_prac,6,house2,blue-red,regular,NA,a,l,0.36292310059070587,0,2
4,28,male,2,1,1,oddball_prac,7,house2,red-blue,regular,NA,l,a,0.7119879014790058,0,2
4,28,male,2,1,1,oddball_prac,8,house1,red-blue,regular,NA,a,a,0.36747970059514046,1,3
4,28,male,2,1,1,oddball_prac,9,house2,blue-red,regular,NA,a,a,0.37144350074231625,1,4
4,28,male,2,1,1,oddball_prac,10,house1,blue-red,regular,NA,l,l,0.306648600846529,1,5
4,28,male,2,1,1,oddball_prac,11,house1,blue-red,regular,NA,l,l,0.2875052001327276,1,6
4,28,male,2,1,1,oddball_prac,12,house2,blue-red,regular,NA,a,a,0.32090770080685616,1,7
4,28,male,2,1,1,oddball_prac,13,house1,red-blue,regular,NA,a,a,0.31601749919354916,1,8
4,28,male,2,1,1,oddball_prac,14,house1,red-blue,regular,NA,a,a,0.35268069989979267,1,9
4,28,male,2,1,1,oddball_prac,15,house1,red-blue,oddball,NA,l,a,0.31108889915049076,0,9
4,28,male,2,1,1,oddball_prac,16,house2,blue-red,regular,NA,a,l,0.29661829955875874,0,9
4,28,male,2,1,1,oddball_prac,17,house1,red-blue,regular,NA,a,NA,NA,0,9
4,28,male,2,1,1,oddball_prac,18,house2,blue-red,regular,NA,a,a,0.2829916011542082,1,10
4,28,male,2,1,1,oddball_prac,19,house2,red-blue,oddball,NA,a,l,0.24895899929106236,0,10
4,28,male,2,1,1,oddball_prac,20,house2,red-blue,regular,NA,l,l,0.3221180010586977,1,11
4,28,male,2,1,1,oddball_prac,21,house1,blue-red,regular,NA,l,l,0.5584591012448072,1,12
4,28,male,2,1,1,oddball_prac,22,house2,blue-red,oddball,NA,l,a,0.2901435997337103,0,12
4,28,male,2,1,1,oddball_prac,23,house2,red-blue,regular,NA,l,l,0.35980609990656376,1,13
4,28,male,2,1,1,oddball_prac,24,house2,blue-red,regular,NA,a,a,0.44632559828460217,1,14
4,28,male,2,1,1,oddball_prac,25,house1,blue-red,oddball,NA,a,l,0.275985699146986,0,14
4,28,male,2,1,1,oddball_prac,26,house2,red-blue,regular,NA,l,l,0.3391599003225565,1,15
4,28,male,2,1,1,oddball_prac,27,house1,red-blue,regular,NA,a,a,0.31979390047490597,1,16
4,28,male,2,1,1,oddball_prac,28,house1,red-blue,regular,NA,a,a,0.45830680057406425,1,17
4,28,male,2,1,1,oddball_prac,29,house2,blue-red,regular,NA,a,a,0.29522489942610264,1,18
4,28,male,2,1,1,oddball_prac,30,house1,blue-red,regular,NA,l,l,0.27518050000071526,1,19
4,28,male,2,1,1,changepoint,1,stimuli/house1.png,stimuli/red-blue.png,regular,steady,l,l,0.3858433999121189,1,1
4,28,male,2,1,1,changepoint,2,stimuli/house1.png,stimuli/red-blue.png,regular,steady,l,l,0.2913256995379925,1,2
4,28,male,2,1,1,changepoint,3,stimuli/house2.png,stimuli/red-blue.png,regular,steady,a,a,0.25642270036041737,1,3
4,28,male,2,1,1,changepoint,4,stimuli/house1.png,stimuli/red-blue.png,oddball,switch,a,l,0.29753199964761734,0,3
4,28,male,2,1,1,changepoint,5,stimuli/house1.png,stimuli/red-blue.png,oddball,steady,a,NA,NA,0,3
4,28,male,2,1,1,changepoint,6,stimuli/house1.png,stimuli/blue-red.png,oddball,steady,l,a,0.3551596999168396,0,3
4,28,male,2,1,1,changepoint,7,stimuli/house1.png,stimuli/blue-red.png,oddball,steady,l,a,0.3019830994307995,0,3
4,28,male,2,1,1,changepoint,8,stimuli/house2.png,stimuli/blue-red.png,oddball,steady,a,a,0.33773200027644634,1,4
4,28,male,2,1,1,changepoint,9,stimuli/house1.png,stimuli/red-blue.png,oddball,steady,a,a,0.3436350002884865,1,5
4,28,male,2,1,1,changepoint,10,stimuli/house2.png,stimuli/red-blue.png,oddball,steady,l,l,0.3194226995110512,1,6
4,28,male,2,1,1,changepoint,11,stimuli/house2.png,stimuli/red-blue.png,regular,switch,a,l,0.33151520043611526,0,6
4,28,male,2,1,1,changepoint,12,stimuli/house1.png,stimuli/blue-red.png,regular,steady,a,a,0.31614330038428307,1,7
4,28,male,2,1,1,changepoint,13,stimuli/house1.png,stimuli/red-blue.png,regular,steady,l,l,0.38789880089461803,1,8
4,28,male,2,1,1,changepoint,14,stimuli/house2.png,stimuli/red-blue.png,regular,steady,a,a,0.30199750140309334,1,9
4,28,male,2,1,1,changepoint,15,stimuli/house1.png,stimuli/blue-red.png,oddball,switch,l,a,0.30295570008456707,0,9
4,28,male,2,1,1,changepoint,16,stimuli/house1.png,stimuli/red-blue.png,oddball,steady,a,a,0.30449000000953674,1,10
4,28,male,2,1,1,changepoint,17,stimuli/house1.png,stimuli/blue-red.png,oddball,steady,l,l,0.27674120105803013,1,11
4,28,male,2,1,1,changepoint,18,stimuli/house1.png,stimuli/blue-red.png,regular,switch,a,l,0.32891579903662205,0,11
4,28,male,2,1,1,changepoint,19,stimuli/house2.png,stimuli/red-blue.png,regular,steady,a,a,0.3281721994280815,1,12
4,28,male,2,1,1,changepoint,20,stimuli/house2.png,stimuli/red-blue.png,regular,steady,a,a,0.31811839900910854,1,13
4,28,male,2,1,1,changepoint,21,stimuli/house1.png,stimuli/blue-red.png,regular,steady,a,a,0.6109341997653246,1,14
4,28,male,2,1,1,changepoint,22,stimuli/house2.png,stimuli/blue-red.png,regular,steady,l,l,0.31667760014533997,1,15
4,28,male,2,1,1,changepoint,23,stimuli/house1.png,stimuli/blue-red.png,regular,steady,a,a,0.3569427002221346,1,16
4,28,male,2,1,1,changepoint,24,stimuli/house1.png,stimuli/red-blue.png,oddball,switch,a,l,0.28161099925637245,0,16
4,28,male,2,1,1,changepoint,25,stimuli/house2.png,stimuli/blue-red.png,oddball,steady,a,a,0.730426600202918,1,17
4,28,male,2,1,1,changepoint,26,stimuli/house1.png,stimuli/red-blue.png,oddball,steady,a,a,0.30006220005452633,1,18
4,28,male,2,1,1,changepoint,27,stimuli/house2.png,stimuli/red-blue.png,oddball,steady,l,l,0.3015582002699375,1,19
4,28,male,2,1,1,changepoint,28,stimuli/house2.png,stimuli/blue-red.png,regular,switch,l,a,0.7030772008001804,0,19
4,28,male,2,1,1,changepoint,29,stimuli/house2.png,stimuli/blue-red.png,regular,steady,l,l,0.30714239925146103,1,20
4,28,male,2,1,1,changepoint,30,stimuli/house2.png,stimuli/red-blue.png,regular,steady,a,a,0.329008799046278,1,21
4,28,male,2,1,1,changepoint,31,stimuli/house2.png,stimuli/blue-red.png,regular,steady,l,l,0.4867920000106096,1,22
4,28,male,2,1,1,changepoint,32,stimuli/house1.png,stimuli/blue-red.png,regular,steady,a,a,0.30572530068457127,1,23
4,28,male,2,1,1,changepoint,33,stimuli/house1.png,stimuli/red-blue.png,regular,steady,l,l,0.23847220093011856,1,24
4,28,male,2,1,1,changepoint,34,stimuli/house2.png,stimuli/blue-red.png,oddball,switch,a,l,0.2887770999222994,0,24
4,28,male,2,1,1,changepoint,35,stimuli/house2.png,stimuli/blue-red.png,oddball,steady,a,a,0.29218729957938194,1,25
4,28,male,2,1,1,changepoint,36,stimuli/house2.png,stimuli/blue-red.png,oddball,steady,a,a,0.39134540036320686,1,26
4,28,male,2,1,1,changepoint,37,stimuli/house2.png,stimuli/red-blue.png,oddball,steady,l,l,0.42602370120584965,1,27
4,28,male,2,1,1,changepoint,38,stimuli/house2.png,stimuli/blue-red.png,oddball,steady,a,a,0.2863341011106968,1,28
4,28,male,2,1,1,changepoint,39,stimuli/house1.png,stimuli/blue-red.png,regular,switch,a,l,0.31725179962813854,0,28
4,28,male,2,1,1,changepoint,40,stimuli/house2.png,stimuli/red-blue.png,regular,steady,a,a,0.3017859999090433,1,29
4,28,male,2,1,1,changepoint,41,stimuli/house2.png,stimuli/red-blue.png,regular,steady,a,a,0.3995063006877899,1,30
4,28,male,2,1,1,changepoint,42,stimuli/house2.png,stimuli/red-blue.png,regular,steady,a,a,0.32265699841082096,1,31
4,28,male,2,1,1,changepoint,43,stimuli/house2.png,stimuli/blue-red.png,regular,steady,l,l,0.3728457000106573,1,32
4,28,male,2,1,1,changepoint,44,stimuli/house2.png,stimuli/red-blue.png,oddball,switch,l,a,0.3007735013961792,0,32
4,28,male,2,1,1,changepoint,45,stimuli/house1.png,stimuli/red-blue.png,oddball,steady,a,a,0.3489776998758316,1,33
4,28,male,2,1,1,changepoint,46,stimuli/house2.png,stimuli/blue-red.png,oddball,steady,a,a,0.292231198400259,1,34
4,28,male,2,1,1,changepoint,47,stimuli/house2.png,stimuli/blue-red.png,oddball,steady,a,a,0.4383375011384487,1,35
4,28,male,2,1,1,changepoint,48,stimuli/house2.png,stimuli/blue-red.png,regular,switch,l,a,0.34516650065779686,0,35
4,28,male,2,1,1,changepoint,49,stimuli/house1.png,stimuli/red-blue.png,regular,steady,l,l,0.37053520046174526,1,36
4,28,male,2,1,1,changepoint,50,stimuli/house1.png,stimuli/red-blue.png,regular,steady,l,l,0.2877081986516714,1,37
4,28,male,2,1,1,changepoint,51,stimuli/house2.png,stimuli/red-blue.png,regular,steady,a,a,0.32474800013005733,1,38
4,28,male,2,1,1,changepoint,52,stimuli/house2.png,stimuli/red-blue.png,oddball,switch,l,a,0.36000589840114117,0,38
4,28,male,2,1,1,changepoint,53,stimuli/house2.png,stimuli/blue-red.png,oddball,steady,a,a,0.28240139968693256,1,39
4,28,male,2,1,1,changepoint,54,stimuli/house2.png,stimuli/blue-red.png,oddball,steady,a,a,0.36517399922013283,1,40
4,28,male,2,1,1,changepoint,55,stimuli/house2.png,stimuli/blue-red.png,oddball,steady,a,a,0.39405620098114014,1,41
4,28,male,2,1,1,changepoint,56,stimuli/house2.png,stimuli/red-blue.png,oddball,steady,l,l,0.49006699956953526,1,42
4,28,male,2,1,1,changepoint,57,stimuli/house2.png,stimuli/blue-red.png,regular,switch,l,a,0.3323500994592905,0,42
4,28,male,2,1,1,changepoint,58,stimuli/house1.png,stimuli/blue-red.png,regular,steady,a,a,0.3515197988599539,1,43
4,28,male,2,1,1,changepoint,59,stimuli/house1.png,stimuli/red-blue.png,regular,steady,l,l,0.5550305992364883,1,44
4,28,male,2,1,2,oddball1,1,house2,blue-red,regular,NA,l,l,0.3231118004769087,1,1
4,28,male,2,1,2,oddball1,2,house1,blue-red,oddball,NA,l,a,0.3419325016438961,0,1
4,28,male,2,1,2,oddball1,3,house1,blue-red,regular,NA,a,a,0.7005836013704538,1,2
4,28,male,2,1,2,oddball1,4,house2,red-blue,regular,NA,a,a,0.29190849885344505,1,3
4,28,male,2,1,2,oddball1,5,house2,blue-red,oddball,NA,a,l,0.2769609000533819,0,3
4,28,male,2,1,2,oddball1,6,house2,red-blue,regular,NA,a,a,0.2650856003165245,1,4
4,28,male,2,1,2,oddball1,7,house2,red-blue,regular,NA,a,a,0.34346610121428967,1,5
4,28,male,2,1,2,oddball1,8,house1,red-blue,oddball,NA,a,l,0.30527370050549507,0,5
4,28,male,2,1,2,oddball1,9,house2,red-blue,regular,NA,a,a,0.3395521994680166,1,6
4,28,male,2,1,2,oddball1,10,house1,red-blue,regular,NA,l,l,0.3245067000389099,1,7
4,28,male,2,1,2,oddball1,11,house1,blue-red,regular,NA,a,a,0.2858547009527683,1,8
4,28,male,2,1,2,oddball1,12,house2,red-blue,regular,NA,a,a,0.27948970161378384,1,9
4,28,male,2,1,2,oddball1,13,house2,blue-red,regular,NA,l,l,0.2974638007581234,1,10
4,28,male,2,1,2,oddball1,14,house2,red-blue,regular,NA,a,a,0.29248350113630295,1,11
4,28,male,2,1,2,oddball1,15,house1,red-blue,oddball,NA,a,l,0.2687835991382599,0,11
4,28,male,2,1,2,oddball1,16,house2,red-blue,regular,NA,a,l,0.35554339922964573,0,11
4,28,male,2,1,2,oddball1,17,house1,red-blue,regular,NA,l,l,0.3022274002432823,1,12
4,28,male,2,1,2,oddball1,18,house2,blue-red,regular,NA,l,l,0.5782220009714365,1,13
4,28,male,2,1,2,oddball1,19,house2,blue-red,regular,NA,l,l,0.3347180001437664,1,14
4,28,male,2,1,2,oddball1,20,house2,red-blue,oddball,NA,l,a,0.26339099928736687,0,14
4,28,male,2,1,2,oddball1,21,house2,blue-red,regular,NA,l,l,0.27303179912269115,1,15
4,28,male,2,1,2,oddball1,22,house1,blue-red,regular,NA,a,a,0.3006503004580736,1,16
4,28,male,2,1,2,oddball1,23,house1,blue-red,regular,NA,a,a,0.3514108993113041,1,17
4,28,male,2,1,2,oddball1,24,house2,blue-red,regular,NA,l,l,0.3270791992545128,1,18
4,28,male,2,1,2,oddball1,25,house2,blue-red,oddball,NA,a,l,0.33238640055060387,0,18
4,28,male,2,1,2,oddball1,26,house1,red-blue,regular,NA,l,l,0.29564750008285046,1,19
4,28,male,2,1,2,oddball1,27,house1,blue-red,regular,NA,a,a,0.3327134996652603,1,20
4,28,male,2,1,2,oddball1,28,house2,red-blue,regular,NA,a,a,0.469453901052475,1,21
4,28,male,2,1,2,oddball1,29,house2,blue-red,regular,NA,l,l,0.2783068995922804,1,22
4,28,male,2,1,2,oddball1,30,house2,blue-red,regular,NA,l,l,0.46181110106408596,1,23
4,28,male,2,1,3,oddball2,1,house2,red-blue,oddball,NA,a,a,0.34467840008437634,1,1
4,28,male,2,1,3,oddball2,2,house2,blue-red,regular,NA,a,l,0.33542910031974316,0,1
4,28,male,2,1,3,oddball2,3,house1,red-blue,regular,NA,a,l,0.286634000018239,0,1
4,28,male,2,1,3,oddball2,4,house2,blue-red,oddball,NA,l,a,0.3325102999806404,0,1
4,28,male,2,1,3,oddball2,5,house1,blue-red,regular,NA,l,NA,NA,0,1
4,28,male,2,1,3,oddball2,6,house1,blue-red,regular,NA,l,l,0.3749250005930662,1,2
4,28,male,2,1,3,oddball2,7,house2,red-blue,regular,NA,l,l,0.2881668992340565,1,3
4,28,male,2,1,3,oddball2,8,house1,red-blue,regular,NA,a,a,0.35552859865128994,1,4
4,28,male,2,1,3,oddball2,9,house2,blue-red,regular,NA,a,a,0.3266029991209507,1,5
4,28,male,2,1,3,oddball2,10,house1,blue-red,regular,NA,l,l,0.29055849835276604,1,6
4,28,male,2,1,3,oddball2,11,house2,blue-red,oddball,NA,l,a,0.3585299998521805,0,6
4,28,male,2,1,3,oddball2,12,house1,red-blue,regular,NA,a,a,0.30607870034873486,1,7
4,28,male,2,1,3,oddball2,13,house1,red-blue,regular,NA,a,a,0.31801349855959415,1,8
4,28,male,2,1,3,oddball2,14,house1,red-blue,regular,NA,a,a,0.33426859974861145,1,9
4,28,male,2,1,3,oddball2,15,house2,red-blue,oddball,NA,a,l,0.3507256992161274,0,9
4,28,male,2,1,3,oddball2,16,house2,red-blue,regular,NA,l,l,0.3221243992447853,1,10
4,28,male,2,1,3,oddball2,17,house2,red-blue,regular,NA,l,l,0.3171228002756834,1,11
4,28,male,2,1,3,oddball2,18,house2,blue-red,regular,NA,a,a,0.3441904988139868,1,12
4,28,male,2,1,3,oddball2,19,house1,red-blue,oddball,NA,l,a,0.4407988991588354,0,12
4,28,male,2,1,3,oddball2,20,house2,red-blue,regular,NA,l,l,0.3364146985113621,1,13
4,28,male,2,1,3,oddball2,21,house1,blue-red,regular,NA,l,l,0.3175000995397568,1,14
4,28,male,2,1,3,oddball2,22,house1,red-blue,regular,NA,a,a,0.5893943011760712,1,15
4,28,male,2,1,3,oddball2,23,house2,blue-red,regular,NA,a,a,0.2309552002698183,1,16
4,28,male,2,1,3,oddball2,24,house1,blue-red,oddball,NA,a,l,0.26252800039947033,0,16
4,28,male,2,1,3,oddball2,25,house1,blue-red,regular,NA,l,l,0.39121379889547825,1,17
4,28,male,2,1,3,oddball2,26,house1,red-blue,regular,NA,a,a,0.28549209982156754,1,18
4,28,male,2,1,3,oddball2,27,house1,red-blue,regular,NA,a,a,0.63302599824965,1,19
4,28,male,2,1,3,oddball2,28,house2,blue-red,regular,NA,a,a,0.5483959000557661,1,20
4,28,male,2,1,3,oddball2,29,house2,blue-red,regular,NA,a,a,0.308440500870347,1,21
4,28,male,2,1,3,oddball2,30,house2,blue-red,regular,NA,a,a,0.30259199999272823,1,22
4,28,male,2,1,4,changepoint,1,stimuli/house2.png,stimuli/blue-red.png,regular,steady,l,a,0.32818139903247356,0,0
4,28,male,2,1,4,changepoint,2,stimuli/house2.png,stimuli/red-blue.png,regular,steady,a,a,0.42156070098280907,1,1
4,28,male,2,1,4,changepoint,3,stimuli/house1.png,stimuli/red-blue.png,regular,steady,l,l,0.3468281999230385,1,2
4,28,male,2,1,4,changepoint,4,stimuli/house2.png,stimuli/red-blue.png,regular,steady,a,a,0.3312004003673792,1,3
4,28,male,2,1,4,changepoint,5,stimuli/house2.png,stimuli/red-blue.png,regular,steady,a,a,0.297979099676013,1,4
4,28,male,2,1,4,changepoint,6,stimuli/house2.png,stimuli/red-blue.png,oddball,switch,l,a,0.325153399258852,0,4
4,28,male,2,1,4,changepoint,7,stimuli/house2.png,stimuli/blue-red.png,oddball,steady,a,a,0.2705104984343052,1,5
4,28,male,2,1,4,changepoint,8,stimuli/house1.png,stimuli/blue-red.png,oddball,steady,l,l,0.3849896006286144,1,6
4,28,male,2,1,4,changepoint,9,stimuli/house2.png,stimuli/blue-red.png,oddball,steady,a,a,0.3075820989906788,1,7
4,28,male,2,1,4,changepoint,10,stimuli/house1.png,stimuli/red-blue.png,regular,switch,l,a,0.3811336997896433,0,7
4,28,male,2,1,4,changepoint,11,stimuli/house2.png,stimuli/red-blue.png,regular,steady,a,a,0.31432650052011013,1,8
4,28,male,2,1,4,changepoint,12,stimuli/house2.png,stimuli/red-blue.png,regular,steady,a,a,0.29947010055184364,1,9
4,28,male,2,1,4,changepoint,13,stimuli/house2.png,stimuli/blue-red.png,regular,steady,l,l,0.26182479970157146,1,10
4,28,male,2,1,4,changepoint,14,stimuli/house1.png,stimuli/red-blue.png,regular,steady,l,l,0.2952417992055416,1,11
4,28,male,2,1,4,changepoint,15,stimuli/house1.png,stimuli/red-blue.png,regular,steady,l,l,0.32561349868774414,1,12
4,28,male,2,1,4,changepoint,16,stimuli/house1.png,stimuli/blue-red.png,oddball,switch,l,a,0.275815699249506,0,12
4,28,male,2,1,4,changepoint,17,stimuli/house1.png,stimuli/red-blue.png,oddball,steady,a,a,0.27581319957971573,1,13
4,28,male,2,1,4,changepoint,18,stimuli/house2.png,stimuli/blue-red.png,oddball,steady,a,l,0.3779490999877453,0,13
4,28,male,2,1,4,changepoint,19,stimuli/house1.png,stimuli/blue-red.png,oddball,steady,l,l,0.44836089946329594,1,14
4,28,male,2,1,4,changepoint,20,stimuli/house2.png,stimuli/red-blue.png,oddball,steady,l,l,0.2944582011550665,1,15
4,28,male,2,1,4,changepoint,21,stimuli/house2.png,stimuli/red-blue.png,regular,switch,a,l,0.31479569897055626,0,15
4,28,male,2,1,4,changepoint,22,stimuli/house1.png,stimuli/blue-red.png,regular,steady,a,a,0.26490069925785065,1,16
4,28,male,2,1,4,changepoint,23,stimuli/house1.png,stimuli/blue-red.png,regular,steady,a,a,0.30579710006713867,1,17
4,28,male,2,1,4,changepoint,24,stimuli/house2.png,stimuli/blue-red.png,regular,steady,l,l,0.34032589942216873,1,18
4,28,male,2,1,4,changepoint,25,stimuli/house1.png,stimuli/red-blue.png,oddball,switch,a,l,0.3866441994905472,0,18
4,28,male,2,1,4,changepoint,26,stimuli/house2.png,stimuli/blue-red.png,oddball,steady,a,a,0.30192700028419495,1,19
4,28,male,2,1,4,changepoint,27,stimuli/house2.png,stimuli/red-blue.png,oddball,steady,l,l,0.2944543994963169,1,20
4,28,male,2,1,4,changepoint,28,stimuli/house1.png,stimuli/red-blue.png,oddball,steady,a,a,0.2845659013837576,1,21
4,28,male,2,1,4,changepoint,29,stimuli/house2.png,stimuli/blue-red.png,oddball,steady,a,l,0.4823123998939991,0,21
4,28,male,2,1,4,changepoint,30,stimuli/house2.png,stimuli/blue-red.png,regular,switch,l,a,0.313646599650383,0,21
4,28,male,2,1,4,changepoint,31,stimuli/house1.png,stimuli/red-blue.png,regular,steady,l,l,0.31488689966499805,1,22
4,28,male,2,1,4,changepoint,32,stimuli/house1.png,stimuli/blue-red.png,regular,steady,a,a,0.7192540001124144,1,23
4,28,male,2,1,4,changepoint,33,stimuli/house2.png,stimuli/blue-red.png,regular,steady,l,l,0.2422854993492365,1,24
4,28,male,2,1,4,changepoint,34,stimuli/house2.png,stimuli/red-blue.png,oddball,switch,l,a,0.30060720071196556,0,24
4,28,male,2,1,4,changepoint,35,stimuli/house2.png,stimuli/blue-red.png,oddball,steady,a,l,0.3400584999471903,0,24
4,28,male,2,1,4,changepoint,36,stimuli/house1.png,stimuli/blue-red.png,oddball,steady,l,l,0.25675380043685436,1,25
4,28,male,2,1,4,changepoint,37,stimuli/house2.png,stimuli/blue-red.png,oddball,steady,a,a,0.31726690009236336,1,26
4,28,male,2,1,4,changepoint,38,stimuli/house2.png,stimuli/red-blue.png,oddball,steady,l,l,0.29300069995224476,1,27
4,28,male,2,1,4,changepoint,39,stimuli/house1.png,stimuli/blue-red.png,oddball,steady,l,l,0.36128930002450943,1,28
4,28,male,2,1,4,changepoint,40,stimuli/house2.png,stimuli/blue-red.png,oddball,steady,a,a,0.30851219967007637,1,29
4,28,male,2,1,4,changepoint,41,stimuli/house1.png,stimuli/red-blue.png,regular,switch,l,a,0.31675790064036846,0,29
4,28,male,2,1,4,changepoint,42,stimuli/house2.png,stimuli/red-blue.png,regular,steady,a,a,0.30153180100023746,1,30
4,28,male,2,1,4,changepoint,43,stimuli/house1.png,stimuli/red-blue.png,regular,steady,l,l,0.29738069884479046,1,31
4,28,male,2,1,4,changepoint,44,stimuli/house1.png,stimuli/blue-red.png,oddball,switch,l,a,0.2873551994562149,0,31
4,28,male,2,1,4,changepoint,45,stimuli/house2.png,stimuli/red-blue.png,oddball,steady,l,l,0.29395319893956184,1,32
4,28,male,2,1,4,changepoint,46,stimuli/house1.png,stimuli/red-blue.png,oddball,steady,a,a,0.38120169937610626,1,33
4,28,male,2,1,4,changepoint,47,stimuli/house1.png,stimuli/blue-red.png,oddball,steady,l,l,0.32331650145351887,1,34
4,28,male,2,1,4,changepoint,48,stimuli/house2.png,stimuli/blue-red.png,oddball,steady,a,a,0.2925844006240368,1,35
4,28,male,2,1,4,changepoint,49,stimuli/house1.png,stimuli/blue-red.png,regular,switch,a,l,0.28127660043537617,0,35
4,28,male,2,1,4,changepoint,50,stimuli/house1.png,stimuli/red-blue.png,regular,steady,l,l,0.322911499068141,1,36
4,28,male,2,1,4,changepoint,51,stimuli/house2.png,stimuli/red-blue.png,regular,steady,a,l,0.26968750171363354,0,36
4,28,male,2,1,4,changepoint,52,stimuli/house2.png,stimuli/red-blue.png,regular,steady,a,a,0.2699729986488819,1,37
4,28,male,2,1,4,changepoint,53,stimuli/house1.png,stimuli/red-blue.png,regular,steady,l,l,0.3029153998941183,1,38
4,28,male,2,1,4,changepoint,54,stimuli/house1.png,stimuli/blue-red.png,regular,steady,a,a,0.3435577992349863,1,39
4,28,male,2,1,4,changepoint,55,stimuli/house2.png,stimuli/blue-red.png,regular,steady,l,l,0.3833170998841524,1,40
4,28,male,2,1,4,changepoint,56,stimuli/house2.png,stimuli/blue-red.png,oddball,switch,a,l,0.3233570996671915,0,40
4,28,male,2,1,4,changepoint,57,stimuli/house1.png,stimuli/red-blue.png,oddball,steady,a,a,0.3062882013618946,1,41
4,28,male,2,1,4,changepoint,58,stimuli/house1.png,stimuli/blue-red.png,oddball,steady,l,l,0.30219689942896366,1,42
4,28,male,2,1,4,changepoint,59,stimuli/house2.png,stimuli/blue-red.png,oddball,steady,a,a,0.2948569990694523,1,43
4,28,male,2,1,4,changepoint,60,stimuli/house2.png,stimuli/red-blue.png,regular,switch,a,l,0.24732009880244732,0,43
4,28,male,2,1,5,oddball1,1,house1,blue-red,regular,NA,a,a,0.43114230036735535,1,1
4,28,male,2,1,5,oddball1,2,house2,blue-red,regular,NA,l,l,0.6323727015405893,1,2
4,28,male,2,1,5,oddball1,3,house2,red-blue,oddball,NA,l,a,0.3251279015094042,0,2
4,28,male,2,1,5,oddball1,4,house1,blue-red,regular,NA,a,a,0.2759141009300947,1,3
4,28,male,2,1,5,oddball1,5,house2,blue-red,regular,NA,l,l,0.5728488992899656,1,4
4,28,male,2,1,5,oddball1,6,house1,blue-red,oddball,NA,l,l,0.650323199108243,1,5
4,28,male,2,1,5,oddball1,7,house1,red-blue,regular,NA,l,a,0.36203189939260483,0,5
4,28,male,2,1,5,oddball1,8,house2,blue-red,regular,NA,l,a,0.2738763000816107,0,5
4,28,male,2,1,5,oddball1,9,house1,red-blue,regular,NA,l,a,0.4779882989823818,0,5
4,28,male,2,1,5,oddball1,10,house1,red-blue,regular,NA,l,a,0.3864935003221035,0,5
4,28,male,2,1,5,oddball1,11,house1,blue-red,regular,NA,a,a,0.24503549933433533,1,6
4,28,male,2,1,5,oddball1,12,house2,blue-red,regular,NA,l,l,0.3067348003387451,1,7
4,28,male,2,1,5,oddball1,13,house2,blue-red,oddball,NA,a,l,0.30703070014715195,0,7
4,28,male,2,1,5,oddball1,14,house2,red-blue,regular,NA,a,a,0.28579819947481155,1,8
4,28,male,2,1,5,oddball1,15,house2,blue-red,regular,NA,l,l,0.31363850086927414,1,9
4,28,male,2,1,5,oddball1,16,house1,blue-red,regular,NA,a,a,0.3024723008275032,1,10
4,28,male,2,1,5,oddball1,17,house2,blue-red,oddball,NA,a,l,0.29390349984169006,0,10
4,28,male,2,1,5,oddball1,18,house1,red-blue,regular,NA,l,l,0.3241892997175455,1,11
4,28,male,2,1,5,oddball1,19,house1,red-blue,regular,NA,l,l,0.31931350007653236,1,12
4,28,male,2,1,5,oddball1,20,house1,blue-red,oddball,NA,l,a,0.27549090050160885,0,12
4,28,male,2,1,5,oddball1,21,house2,blue-red,regular,NA,l,l,0.3243553005158901,1,13
4,28,male,2,1,5,oddball1,22,house2,blue-red,regular,NA,l,l,0.26389919966459274,1,14
4,28,male,2,1,5,oddball1,23,house1,red-blue,regular,NA,l,l,0.27304499968886375,1,15
4,28,male,2,1,5,oddball1,24,house2,blue-red,regular,NA,l,l,0.27967490069568157,1,16
4,28,male,2,1,5,oddball1,25,house2,blue-red,oddball,NA,a,l,0.33393390104174614,0,16
4,28,male,2,1,5,oddball1,26,house2,red-blue,regular,NA,a,a,0.2932501994073391,1,17
4,28,male,2,1,5,oddball1,27,house1,blue-red,regular,NA,a,a,0.2794483006000519,1,18
4,28,male,2,1,5,oddball1,28,house2,red-blue,regular,NA,a,a,0.31965080089867115,1,19
4,28,male,2,1,5,oddball1,29,house1,red-blue,regular,NA,l,l,0.31139220111072063,1,20
4,28,male,2,1,5,oddball1,30,house2,blue-red,regular,NA,l,l,0.26635449938476086,1,21
4,28,male,2,1,6,oddball2,1,house1,red-blue,oddball,NA,l,l,0.3229261003434658,1,1
4,28,male,2,1,6,oddball2,2,house2,red-blue,regular,NA,l,a,0.3615499995648861,0,1
4,28,male,2,1,6,oddball2,3,house2,blue-red,regular,NA,a,l,0.32651139982044697,0,1
4,28,male,2,1,6,oddball2,4,house2,red-blue,regular,NA,l,l,0.32700449973344803,1,2
4,28,male,2,1,6,oddball2,5,house1,blue-red,regular,NA,l,l,0.6933493986725807,1,3
4,28,male,2,1,6,oddball2,6,house2,red-blue,oddball,NA,a,l,0.34383449889719486,0,3
4,28,male,2,1,6,oddball2,7,house1,blue-red,regular,NA,l,l,0.4653942007571459,1,4
4,28,male,2,1,6,oddball2,8,house2,red-blue,regular,NA,l,l,0.3110784012824297,1,5
4,28,male,2,1,6,oddball2,9,house2,blue-red,oddball,NA,l,a,0.30255760066211224,0,5
4,28,male,2,1,6,oddball2,10,house2,red-blue,regular,NA,l,l,0.298658300191164,1,6
4,28,male,2,1,6,oddball2,11,house1,red-blue,regular,NA,a,a,0.3330780006945133,1,7
4,28,male,2,1,6,oddball2,12,house2,red-blue,regular,NA,l,l,0.2834038995206356,1,8
4,28,male,2,1,6,oddball2,13,house1,red-blue,regular,NA,a,a,0.3237952012568712,1,9
4,28,male,2,1,6,oddball2,14,house2,blue-red,regular,NA,a,a,0.3279776982963085,1,10
4,28,male,2,1,6,oddball2,15,house2,red-blue,regular,NA,l,l,0.25104290060698986,1,11
4,28,male,2,1,6,oddball2,16,house2,red-blue,regular,NA,l,l,0.3083057999610901,1,12
4,28,male,2,1,6,oddball2,17,house2,blue-red,oddball,NA,l,a,0.3026366997510195,0,12
4,28,male,2,1,6,oddball2,18,house1,blue-red,regular,NA,l,l,0.3194194994866848,1,13
4,28,male,2,1,6,oddball2,19,house1,red-blue,regular,NA,a,a,0.2869362998753786,1,14
4,28,male,2,1,6,oddball2,20,house2,blue-red,oddball,NA,l,a,0.3362291995435953,0,14
4,28,male,2,1,6,oddball2,21,house1,red-blue,regular,NA,a,a,0.4490930996835232,1,15
4,28,male,2,1,6,oddball2,22,house2,blue-red,regular,NA,a,a,0.3328344002366066,1,16
4,28,male,2,1,6,oddball2,23,house1,red-blue,oddball,NA,l,a,0.33192669972777367,0,16
4,28,male,2,1,6,oddball2,24,house1,blue-red,regular,NA,l,l,0.2743762005120516,1,17
4,28,male,2,1,6,oddball2,25,house1,blue-red,regular,NA,l,l,0.3473947010934353,1,18
4,28,male,2,1,6,oddball2,26,house1,blue-red,regular,NA,l,l,0.31731409952044487,1,19
4,28,male,2,1,6,oddball2,27,house1,blue-red,regular,NA,l,l,0.2967665996402502,1,20
4,28,male,2,1,6,oddball2,28,house2,blue-red,regular,NA,a,a,0.294412100687623,1,21
4,28,male,2,1,6,oddball2,29,house1,red-blue,regular,NA,a,a,0.31612470000982285,1,22
4,28,male,2,1,6,oddball2,30,house1,blue-red,regular,NA,l,l,0.3543231002986431,1,23
4,28,male,2,1,7,changepoint,1,stimuli/house1.png,stimuli/red-blue.png,regular,steady,l,a,0.5572373997420073,0,0
4,28,male,2,1,7,changepoint,2,stimuli/house1.png,stimuli/red-blue.png,regular,steady,l,l,0.38843660056591034,1,1
4,28,male,2,1,7,changepoint,3,stimuli/house1.png,stimuli/red-blue.png,regular,steady,l,l,0.2936031986027956,1,2
4,28,male,2,1,7,changepoint,4,stimuli/house1.png,stimuli/red-blue.png,oddball,switch,a,l,0.3174450993537903,0,2
4,28,male,2,1,7,changepoint,5,stimuli/house2.png,stimuli/blue-red.png,oddball,steady,a,a,0.295617600902915,1,3
4,28,male,2,1,7,changepoint,6,stimuli/house2.png,stimuli/blue-red.png,oddball,steady,a,a,0.5111358985304832,1,4
4,28,male,2,1,7,changepoint,7,stimuli/house2.png,stimuli/blue-red.png,oddball,steady,a,a,0.38021060079336166,1,5
4,28,male,2,1,7,changepoint,8,stimuli/house2.png,stimuli/red-blue.png,regular,switch,a,l,0.4371922016143799,0,5
4,28,male,2,1,7,changepoint,9,stimuli/house2.png,stimuli/red-blue.png,regular,steady,a,a,0.29060970060527325,1,6
4,28,male,2,1,7,changepoint,10,stimuli/house2.png,stimuli/red-blue.png,regular,steady,a,a,0.5588082987815142,1,7
4,28,male,2,1,7,changepoint,11,stimuli/house1.png,stimuli/blue-red.png,regular,steady,a,a,0.28124310076236725,1,8
4,28,male,2,1,7,changepoint,12,stimuli/house2.png,stimuli/red-blue.png,regular,steady,a,a,0.3073155004531145,1,9
4,28,male,2,1,7,changepoint,13,stimuli/house2.png,stimuli/red-blue.png,oddball,switch,l,a,0.3213369995355606,0,9
4,28,male,2,1,7,changepoint,14,stimuli/house1.png,stimuli/blue-red.png,oddball,steady,l,l,0.2590088006108999,1,10
4,28,male,2,1,7,changepoint,15,stimuli/house1.png,stimuli/red-blue.png,oddball,steady,a,a,0.283917099237442,1,11
4,28,male,2,1,7,changepoint,16,stimuli/house2.png,stimuli/blue-red.png,oddball,steady,a,a,0.26815740019083023,1,12
4,28,male,2,1,7,changepoint,17,stimuli/house2.png,stimuli/blue-red.png,oddball,steady,a,a,0.25022559985518456,1,13
4,28,male,2,1,7,changepoint,18,stimuli/house1.png,stimuli/red-blue.png,oddball,steady,a,a,0.27734849974513054,1,14
4,28,male,2,1,7,changepoint,19,stimuli/house2.png,stimuli/red-blue.png,oddball,steady,l,l,0.33698740042746067,1,15
4,28,male,2,1,7,changepoint,20,stimuli/house2.png,stimuli/blue-red.png,regular,switch,l,a,0.26807859912514687,0,15
4,28,male,2,1,7,changepoint,21,stimuli/house1.png,stimuli/blue-red.png,regular,steady,a,l,0.47783480025827885,0,15
4,28,male,2,1,7,changepoint,22,stimuli/house2.png,stimuli/blue-red.png,regular,steady,l,l,0.5276014991104603,1,16
4,28,male,2,1,7,changepoint,23,stimuli/house2.png,stimuli/red-blue.png,regular,steady,a,a,0.29765609838068485,1,17
4,28,male,2,1,7,changepoint,24,stimuli/house1.png,stimuli/blue-red.png,oddball,switch,l,a,0.3052277993410826,0,17
4,28,male,2,1,7,changepoint,25,stimuli/house1.png,stimuli/red-blue.png,oddball,steady,a,a,0.26196059957146645,1,18
4,28,male,2,1,7,changepoint,26,stimuli/house2.png,stimuli/red-blue.png,oddball,steady,l,l,0.31046699918806553,1,19
4,28,male,2,1,7,changepoint,27,stimuli/house2.png,stimuli/blue-red.png,oddball,steady,a,a,0.307889299467206,1,20
4,28,male,2,1,7,changepoint,28,stimuli/house1.png,stimuli/blue-red.png,regular,switch,a,l,0.3240262009203434,0,20
4,28,male,2,1,7,changepoint,29,stimuli/house1.png,stimuli/red-blue.png,regular,steady,l,l,0.23338920064270496,1,21
4,28,male,2,1,7,changepoint,30,stimuli/house1.png,stimuli/blue-red.png,regular,steady,a,a,0.2769520990550518,1,22
4,28,male,2,1,7,changepoint,31,stimuli/house2.png,stimuli/blue-red.png,regular,steady,l,l,0.3131430000066757,1,23
4,28,male,2,1,7,changepoint,32,stimuli/house2.png,stimuli/red-blue.png,regular,steady,a,a,0.2693275008350611,1,24
4,28,male,2,1,7,changepoint,33,stimuli/house2.png,stimuli/blue-red.png,oddball,switch,a,l,0.49229020066559315,0,24
4,28,male,2,1,7,changepoint,34,stimuli/house2.png,stimuli/blue-red.png,oddball,steady,a,a,0.27112819999456406,1,25
4,28,male,2,1,7,changepoint,35,stimuli/house2.png,stimuli/blue-red.png,oddball,steady,a,a,0.25805759988725185,1,26
4,28,male,2,1,7,changepoint,36,stimuli/house2.png,stimuli/red-blue.png,oddball,steady,l,l,0.2638946007937193,1,27
4,28,male,2,1,7,changepoint,37,stimuli/house1.png,stimuli/blue-red.png,oddball,steady,l,a,0.3334638010710478,0,27
4,28,male,2,1,7,changepoint,38,stimuli/house1.png,stimuli/blue-red.png,oddball,steady,l,l,0.3322752006351948,1,28
4,28,male,2,1,7,changepoint,39,stimuli/house2.png,stimuli/red-blue.png,oddball,steady,l,l,0.3262975011020899,1,29
4,28,male,2,1,7,changepoint,40,stimuli/house1.png,stimuli/red-blue.png,regular,switch,l,a,0.2969776000827551,0,29
4,28,male,2,1,7,changepoint,41,stimuli/house1.png,stimuli/red-blue.png,regular,steady,l,l,0.3078267015516758,1,30
4,28,male,2,1,7,changepoint,42,stimuli/house1.png,stimuli/blue-red.png,regular,steady,a,a,0.3615683987736702,1,31
4,28,male,2,1,7,changepoint,43,stimuli/house1.png,stimuli/red-blue.png,oddball,switch,a,l,0.3152338992804289,0,31
4,28,male,2,1,7,changepoint,44,stimuli/house1.png,stimuli/red-blue.png,oddball,steady,a,a,0.31188710033893585,1,32
4,28,male,2,1,7,changepoint,45,stimuli/house1.png,stimuli/blue-red.png,oddball,steady,l,l,0.4078949000686407,1,33
4,28,male,2,1,7,changepoint,46,stimuli/house2.png,stimuli/blue-red.png,oddball,steady,a,l,0.24356430023908615,0,33
4,28,male,2,1,7,changepoint,47,stimuli/house1.png,stimuli/blue-red.png,regular,switch,a,l,0.40554000064730644,0,33
4,28,male,2,1,7,changepoint,48,stimuli/house2.png,stimuli/red-blue.png,regular,steady,a,a,0.3028772994875908,1,34
4,28,male,2,1,7,changepoint,49,stimuli/house1.png,stimuli/red-blue.png,regular,steady,l,l,0.2953533995896578,1,35
4,28,male,2,1,7,changepoint,50,stimuli/house2.png,stimuli/red-blue.png,regular,steady,a,a,0.29305220022797585,1,36
4,28,male,2,1,7,changepoint,51,stimuli/house2.png,stimuli/red-blue.png,regular,steady,a,a,0.303448099642992,1,37
4,28,male,2,1,7,changepoint,52,stimuli/house2.png,stimuli/blue-red.png,oddball,switch,a,l,0.3162811007350683,0,37
4,28,male,2,1,7,changepoint,53,stimuli/house1.png,stimuli/blue-red.png,oddball,steady,l,l,0.3182626999914646,1,38
4,28,male,2,1,7,changepoint,54,stimuli/house2.png,stimuli/blue-red.png,oddball,steady,a,a,0.2999312002211809,1,39
4,28,male,2,1,7,changepoint,55,stimuli/house2.png,stimuli/red-blue.png,oddball,steady,l,l,0.3297937009483576,1,40
4,28,male,2,1,7,changepoint,56,stimuli/house1.png,stimuli/blue-red.png,oddball,steady,l,l,0.32588519901037216,1,41
4,28,male,2,1,7,changepoint,57,stimuli/house1.png,stimuli/blue-red.png,oddball,steady,l,l,0.3590712007135153,1,42
4,28,male,2,1,7,changepoint,58,stimuli/house1.png,stimuli/red-blue.png,regular,switch,l,a,0.2453744988888502,0,42
4,28,male,2,1,7,changepoint,59,stimuli/house2.png,stimuli/red-blue.png,regular,steady,a,a,0.3564251009374857,1,43
4,28,male,2,1,7,changepoint,60,stimuli/house1.png,stimuli/blue-red.png,regular,steady,a,a,0.3530469983816147,1,44
