id,age,sex,cb,order,block,part,trial,cue,buses_order,trans_type,surprise,ans,response,RT,ACC,performance
,,,,,,,,,,,,,,,,
1,24,male,1,1,practice_no_timeout,association1,1,house1,red-blue,regular,NA,l,a,0.6643993,0,
,,,,,,,,,,,,,,,,
1,24,male,1,1,practice_no_timeout,association1,2,house2,red-blue,regular,NA,a,l,0.7922653,0,
,,,,,,,,,,,,,,,,
1,24,male,1,1,practice_no_timeout,association1,3,house1,red-blue,regular,NA,l,a,0.589286499,0,
,,,,,,,,,,,,,,,,
1,24,male,1,1,practice_no_timeout,association1,4,house1,blue-red,regular,NA,a,l,1.7669059,0,
,,,,,,,,,,,,,,,,
1,24,male,1,1,practice_no_timeout,association1,5,house1,red-blue,regular,NA,l,l,0.8897081,1,
,,,,,,,,,,,,,,,,
1,24,male,1,1,practice_no_timeout,association1,6,house1,red-blue,regular,NA,l,l,0.796008801,1,
,,,,,,,,,,,,,,,,
1,24,male,1,1,practice_no_timeout,association1,7,house1,blue-red,regular,NA,a,a,0.3142632,1,
,,,,,,,,,,,,,,,,
1,24,male,1,1,practice_no_timeout,association1,8,house2,blue-red,regular,NA,l,l,0.2523927,1,
,,,,,,,,,,,,,,,,
1,24,male,1,1,practice_no_timeout,association1,9,house2,blue-red,regular,NA,l,l,0.6775092,1,
,,,,,,,,,,,,,,,,
1,24,male,1,1,practice_no_timeout,association1,10,house2,red-blue,regular,NA,a,a,1.417098101,1,
,,,,,,,,,,,,,,,,
1,24,male,1,1,practice_no_timeout,association1,11,house2,red-blue,regular,NA,a,a,0.298364399,1,
,,,,,,,,,,,,,,,,
1,24,male,1,1,practice_no_timeout,association1,12,house2,blue-red,regular,NA,l,l,0.4078042,1,
,,,,,,,,,,,,,,,,
1,24,male,1,1,practice_no_timeout,association1,13,house1,red-blue,regular,NA,l,l,1.239395101,1,
,,,,,,,,,,,,,,,,
1,24,male,1,1,practice_no_timeout,association1,14,house2,red-blue,regular,NA,a,a,0.786496399,1,
,,,,,,,,,,,,,,,,
1,24,male,1,1,practice_no_timeout,association1,15,house2,blue-red,regular,NA,l,l,1.219885301,1,
,,,,,,,,,,,,,,,,
1,24,male,1,1,practice_no_timeout,association1,16,house1,red-blue,regular,NA,l,l,0.4046259,1,
,,,,,,,,,,,,,,,,
1,24,male,1,1,practice_no_timeout,association1,17,house1,red-blue,regular,NA,l,l,0.2171844,1,
,,,,,,,,,,,,,,,,
1,24,male,1,1,practice_no_timeout,association1,18,house2,red-blue,regular,NA,a,a,0.503744701,1,
,,,,,,,,,,,,,,,,
1,24,male,1,1,practice_no_timeout,association1,19,house2,blue-red,regular,NA,l,l,0.7579486,1,
,,,,,,,,,,,,,,,,
1,24,male,1,1,practice_no_timeout,association1,20,house2,blue-red,regular,NA,l,l,0.7839607,1,
,,,,,,,,,,,,,,,,
1,24,male,1,1,practice,association1_timepres,1,house1,red-blue,regular,NA,l,l,0.664831499,1,
,,,,,,,,,,,,,,,,
1,24,male,1,1,practice,association1_timepres,2,house1,blue-red,regular,NA,a,a,0.205531299,1,
,,,,,,,,,,,,,,,,
1,24,male,1,1,practice,association1_timepres,3,house1,blue-red,regular,NA,a,a,0.355864599,1,
,,,,,,,,,,,,,,,,
1,24,male,1,1,practice,association1_timepres,4,house2,red-blue,regular,NA,a,a,0.441289701,1,
,,,,,,,,,,,,,,,,
1,24,male,1,1,practice,association1_timepres,5,house2,red-blue,regular,NA,a,a,0.221370099,1,
,,,,,,,,,,,,,,,,
1,24,male,1,1,practice,association1_timepres,6,house2,red-blue,regular,NA,a,a,0.218044002,1,
,,,,,,,,,,,,,,,,
1,24,male,1,1,practice,association1_timepres,7,house2,red-blue,regular,NA,a,a,0.2109662,1,
,,,,,,,,,,,,,,,,
1,24,male,1,1,practice_no_timeout,association2,1,house2,blue-red,regular,NA,a,a,0.397940699,1,
,,,,,,,,,,,,,,,,
1,24,male,1,1,practice_no_timeout,association2,2,house2,blue-red,regular,NA,a,a,0.2250981,1,
,,,,,,,,,,,,,,,,
1,24,male,1,1,practice_no_timeout,association2,3,house1,blue-red,regular,NA,l,l,0.210416699,1,
,,,,,,,,,,,,,,,,
1,24,male,1,1,practice_no_timeout,association2,4,house1,blue-red,regular,NA,l,l,0.495824801,1,
,,,,,,,,,,,,,,,,
1,24,male,1,1,practice_no_timeout,association2,5,house2,red-blue,regular,NA,l,l,0.3290921,1,
,,,,,,,,,,,,,,,,
1,24,male,1,1,practice_no_timeout,association2,6,house2,red-blue,regular,NA,l,l,0.2260787,1,
,,,,,,,,,,,,,,,,
1,24,male,1,1,practice_no_timeout,association2,7,house1,blue-red,regular,NA,l,l,0.364449,1,
,,,,,,,,,,,,,,,,
1,24,male,1,1,practice,association2_timepres,1,house2,blue-red,regular,NA,a,l,0.2799164,0,
,,,,,,,,,,,,,,,,
1,24,male,1,1,practice,association2_timepres,2,house1,blue-red,regular,NA,l,a,0.2413777,0,
,,,,,,,,,,,,,,,,
1,24,male,1,1,practice,association2_timepres,3,house2,blue-red,regular,NA,a,NA,NA,0,
,,,,,,,,,,,,,,,,
1,24,male,1,1,practice,association2_timepres,4,house2,blue-red,regular,NA,a,a,0.213274101,1,
,,,,,,,,,,,,,,,,
1,24,male,1,1,practice,association2_timepres,5,house1,blue-red,regular,NA,l,l,0.2167842,1,
,,,,,,,,,,,,,,,,
1,24,male,1,1,practice,association2_timepres,6,house1,blue-red,regular,NA,l,l,0.1614582,1,
,,,,,,,,,,,,,,,,
1,24,male,1,1,practice,association2_timepres,7,house2,red-blue,regular,NA,l,l,0.193197601,1,
,,,,,,,,,,,,,,,,
1,24,male,1,1,practice,association2_timepres,8,house2,red-blue,regular,NA,l,l,0.199011501,1,
,,,,,,,,,,,,,,,,
1,24,male,1,1,practice,association2_timepres,9,house1,red-blue,regular,NA,a,a,0.324662901,1,
,,,,,,,,,,,,,,,,
1,24,male,1,1,practice,association2_timepres,10,house2,blue-red,regular,NA,a,l,0.243083501,0,
,,,,,,,,,,,,,,,,
1,24,male,1,1,practice,association2_timepres,11,house2,red-blue,regular,NA,l,l,0.1834084,1,
,,,,,,,,,,,,,,,,
1,24,male,1,1,practice,association2_timepres,12,house2,red-blue,regular,NA,l,l,0.2423987,1,
,,,,,,,,,,,,,,,,
1,24,male,1,1,practice,association2_timepres,13,house1,red-blue,regular,NA,a,a,0.2559998,1,
,,,,,,,,,,,,,,,,
1,24,male,1,1,practice,association2_timepres,14,house2,blue-red,regular,NA,a,a,0.4547823,1,
,,,,,,,,,,,,,,,,
1,24,male,1,1,practice,association2_timepres,15,house1,red-blue,regular,NA,a,a,0.332619701,1,
,,,,,,,,,,,,,,,,
1,24,male,1,1,practice,association2_timepres,16,house1,red-blue,regular,NA,a,a,0.2735589,1,
,,,,,,,,,,,,,,,,
1,24,male,1,1,practice,association2_timepres,17,house2,red-blue,regular,NA,l,l,0.201836798,1,
,,,,,,,,,,,,,,,,
1,24,male,1,1,practice,association2_timepres,18,house2,red-blue,regular,NA,l,l,0.271635899,1,
,,,,,,,,,,,,,,,,
1,24,male,1,1,practice,association2_timepres,19,house1,blue-red,regular,NA,l,l,0.232124599,1,
,,,,,,,,,,,,,,,,
1,24,male,1,1,practice,association2_timepres,20,house1,blue-red,regular,NA,l,l,0.280740401,1,
,,,,,,,,,,,,,,,,
1,24,male,1,1,1,changepoint_prac,1,stimuli/house2.png,stimuli/blue-red.png,regular,steady,l,a,0.313516501,0,0
,,,,,,,,,,,,,,,,
1,24,male,1,1,1,changepoint_prac,2,stimuli/house2.png,stimuli/red-blue.png,regular,steady,a,l,0.3318158,0,0
,,,,,,,,,,,,,,,,
1,24,male,1,1,1,changepoint_prac,3,stimuli/house2.png,stimuli/blue-red.png,regular,steady,l,l,0.4817887,1,1
,,,,,,,,,,,,,,,,
1,24,male,1,1,1,changepoint_prac,4,stimuli/house2.png,stimuli/blue-red.png,regular,steady,l,l,0.4288982,1,2
,,,,,,,,,,,,,,,,
1,24,male,1,1,1,changepoint_prac,5,stimuli/house1.png,stimuli/red-blue.png,regular,steady,l,l,0.6211855,1,3
,,,,,,,,,,,,,,,,
1,24,male,1,1,1,changepoint_prac,6,stimuli/house2.png,stimuli/red-blue.png,regular,steady,a,a,0.324790299,1,4
,,,,,,,,,,,,,,,,
1,24,male,1,1,1,changepoint_prac,7,stimuli/house1.png,stimuli/blue-red.png,oddball,switch,l,a,0.3599247,0,4
,,,,,,,,,,,,,,,,
1,24,male,1,1,1,changepoint_prac,8,stimuli/house2.png,stimuli/red-blue.png,oddball,steady,l,l,0.3616661,1,5
,,,,,,,,,,,,,,,,
1,24,male,1,1,1,changepoint_prac,9,stimuli/house1.png,stimuli/red-blue.png,oddball,steady,a,a,0.3511726,1,6
,,,,,,,,,,,,,,,,
1,24,male,1,1,1,changepoint_prac,10,stimuli/house2.png,stimuli/blue-red.png,oddball,steady,a,a,0.363952899,1,7
,,,,,,,,,,,,,,,,
1,24,male,1,1,1,changepoint_prac,11,stimuli/house1.png,stimuli/red-blue.png,regular,switch,l,a,0.443980699,0,7
,,,,,,,,,,,,,,,,
1,24,male,1,1,1,changepoint_prac,12,stimuli/house2.png,stimuli/blue-red.png,regular,steady,l,l,0.349954901,1,8
,,,,,,,,,,,,,,,,
1,24,male,1,1,1,changepoint_prac,13,stimuli/house1.png,stimuli/blue-red.png,regular,steady,a,a,0.505023701,1,9
,,,,,,,,,,,,,,,,
1,24,male,1,1,1,changepoint_prac,14,stimuli/house1.png,stimuli/red-blue.png,regular,steady,l,l,0.333011299,1,10
,,,,,,,,,,,,,,,,
1,24,male,1,1,1,changepoint_prac,15,stimuli/house1.png,stimuli/blue-red.png,regular,steady,a,NA,NA,0,10
,,,,,,,,,,,,,,,,
1,24,male,1,1,1,changepoint_prac,16,stimuli/house1.png,stimuli/blue-red.png,regular,steady,a,a,0.3827083,1,11
,,,,,,,,,,,,,,,,
1,24,male,1,1,1,changepoint_prac,17,stimuli/house2.png,stimuli/red-blue.png,oddball,switch,l,a,0.4426647,0,11
,,,,,,,,,,,,,,,,
1,24,male,1,1,1,changepoint_prac,18,stimuli/house1.png,stimuli/blue-red.png,oddball,steady,l,l,0.4303152,1,12
,,,,,,,,,,,,,,,,
1,24,male,1,1,1,changepoint_prac,19,stimuli/house1.png,stimuli/red-blue.png,oddball,steady,a,a,0.359712901,1,13
,,,,,,,,,,,,,,,,
1,24,male,1,1,1,changepoint_prac,20,stimuli/house1.png,stimuli/red-blue.png,oddball,steady,a,a,0.570867701,1,14
,,,,,,,,,,,,,,,,
1,24,male,1,1,1,changepoint_prac,21,stimuli/house2.png,stimuli/red-blue.png,oddball,steady,l,l,0.3334351,1,15
,,,,,,,,,,,,,,,,
1,24,male,1,1,1,oddball_prac,1,house2,blue-red,regular,NA,l,a,0.3906647,0,0
,,,,,,,,,,,,,,,,
1,24,male,1,1,1,oddball_prac,2,house1,red-blue,oddball,NA,a,NA,NA,0,0
,,,,,,,,,,,,,,,,
1,24,male,1,1,1,oddball_prac,3,house2,blue-red,regular,NA,l,a,0.363286799,0,0
,,,,,,,,,,,,,,,,
1,24,male,1,1,1,oddball_prac,4,house2,blue-red,regular,NA,l,a,0.393272899,0,0
,,,,,,,,,,,,,,,,
1,24,male,1,1,1,oddball_prac,5,house2,blue-red,regular,NA,l,a,0.434084799,0,0
,,,,,,,,,,,,,,,,
1,24,male,1,1,1,oddball_prac,6,house2,red-blue,regular,NA,a,a,0.485306,1,1
,,,,,,,,,,,,,,,,
1,24,male,1,1,1,oddball_prac,7,house1,blue-red,oddball,NA,l,a,0.647213899,0,1
,,,,,,,,,,,,,,,,
1,24,male,1,1,1,oddball_prac,8,house1,blue-red,regular,NA,a,a,0.383360399,1,2
,,,,,,,,,,,,,,,,
1,24,male,1,1,1,oddball_prac,9,house1,blue-red,regular,NA,a,l,0.3144898,0,2
,,,,,,,,,,,,,,,,
1,24,male,1,1,1,oddball_prac,10,house2,blue-red,oddball,NA,a,a,0.414279699,1,3
,,,,,,,,,,,,,,,,
1,24,male,1,1,1,oddball_prac,11,house1,blue-red,regular,NA,a,NA,NA,0,3
,,,,,,,,,,,,,,,,
1,24,male,1,1,1,oddball_prac,12,house1,red-blue,regular,NA,l,a,0.468605701,0,3
,,,,,,,,,,,,,,,,
1,24,male,1,1,1,oddball_prac,13,house2,red-blue,regular,NA,a,l,0.2935856,0,3
,,,,,,,,,,,,,,,,
1,24,male,1,1,1,oddball_prac,14,house1,red-blue,regular,NA,l,l,0.326966699,1,4
,,,,,,,,,,,,,,,,
1,24,male,1,1,1,oddball_prac,15,house1,red-blue,oddball,NA,a,l,0.471430099,0,4
,,,,,,,,,,,,,,,,
1,24,male,1,1,1,oddball_prac,16,house1,blue-red,regular,NA,a,a,0.632518899,1,5
,,,,,,,,,,,,,,,,
1,24,male,1,1,1,oddball_prac,17,house1,red-blue,regular,NA,l,l,0.2944858,1,6
,,,,,,,,,,,,,,,,
1,24,male,1,1,1,oddball_prac,18,house1,blue-red,regular,NA,a,a,0.598943802,1,7
,,,,,,,,,,,,,,,,
1,24,male,1,1,1,oddball_prac,19,house1,red-blue,regular,NA,l,l,0.403975599,1,8
,,,,,,,,,,,,,,,,
1,24,male,1,1,1,oddball_prac,20,house2,red-blue,regular,NA,a,a,0.7282426,1,9
,,,,,,,,,,,,,,,,
1,24,male,1,1,1,oddball_prac,21,house1,red-blue,oddball,NA,a,l,0.3473846,0,9
,,,,,,,,,,,,,,,,
1,24,male,1,1,1,oddball_prac,22,house1,red-blue,regular,NA,l,NA,NA,0,9
,,,,,,,,,,,,,,,,
1,24,male,1,1,1,oddball_prac,23,house2,red-blue,regular,NA,a,a,0.4441547,1,10
,,,,,,,,,,,,,,,,
1,24,male,1,1,1,oddball_prac,24,house1,blue-red,oddball,NA,l,l,0.3334215,1,11
,,,,,,,,,,,,,,,,
1,24,male,1,1,1,oddball_prac,25,house2,blue-red,regular,NA,l,a,0.5438211,0,11
,,,,,,,,,,,,,,,,
1,24,male,1,1,1,oddball_prac,26,house1,blue-red,regular,NA,a,a,0.7071109,1,12
,,,,,,,,,,,,,,,,
1,24,male,1,1,1,oddball_prac,27,house2,blue-red,regular,NA,l,l,0.400059301,1,13
,,,,,,,,,,,,,,,,
1,24,male,1,1,1,oddball_prac,28,house1,red-blue,regular,NA,l,a,0.3793738,0,13
,,,,,,,,,,,,,,,,
1,24,male,1,1,1,oddball_prac,29,house1,red-blue,regular,NA,l,l,0.523234202,1,14
,,,,,,,,,,,,,,,,
1,24,male,1,1,1,oddball_prac,30,house2,red-blue,regular,NA,a,a,0.436081499,1,15
,,,,,,,,,,,,,,,,
1,24,male,1,1,1,oddball_prac,1,house2,red-blue,regular,NA,l,l,0.516659301,1,1
,,,,,,,,,,,,,,,,
1,24,male,1,1,1,oddball_prac,2,house2,blue-red,regular,NA,a,a,0.313244499,1,2
,,,,,,,,,,,,,,,,
1,24,male,1,1,1,oddball_prac,3,house1,blue-red,regular,NA,l,l,0.3081723,1,3
,,,,,,,,,,,,,,,,
1,24,male,1,1,1,oddball_prac,4,house1,red-blue,oddball,NA,l,a,0.3872195,0,3
,,,,,,,,,,,,,,,,
1,24,male,1,1,1,oddball_prac,5,house1,blue-red,regular,NA,l,l,0.2978277,1,4
,,,,,,,,,,,,,,,,
1,24,male,1,1,1,oddball_prac,6,house2,blue-red,regular,NA,a,a,0.372390201,1,5
,,,,,,,,,,,,,,,,
1,24,male,1,1,1,oddball_prac,7,house2,blue-red,regular,NA,a,a,0.453951599,1,6
,,,,,,,,,,,,,,,,
1,24,male,1,1,1,oddball_prac,8,house1,blue-red,oddball,NA,a,l,0.3363463,0,6
,,,,,,,,,,,,,,,,
1,24,male,1,1,1,oddball_prac,9,house1,blue-red,regular,NA,l,l,0.4630278,1,7
,,,,,,,,,,,,,,,,
1,24,male,1,1,1,oddball_prac,10,house1,blue-red,regular,NA,l,l,0.333246799,1,8
,,,,,,,,,,,,,,,,
1,24,male,1,1,1,oddball_prac,11,house1,blue-red,regular,NA,l,l,0.4970506,1,9
,,,,,,,,,,,,,,,,
1,24,male,1,1,1,oddball1,1,house1,blue-red,oddball,NA,l,l,0.3311751,1,1
,,,,,,,,,,,,,,,,
1,24,male,1,1,1,oddball1,2,house1,red-blue,regular,NA,l,a,0.4470709,0,1
,,,,,,,,,,,,,,,,
1,24,male,1,1,1,oddball1,3,house2,blue-red,regular,NA,l,l,0.5827363,1,2
,,,,,,,,,,,,,,,,
1,24,male,1,1,1,oddball1,4,house1,red-blue,regular,NA,l,l,0.4705204,1,3
,,,,,,,,,,,,,,,,
1,24,male,1,1,1,oddball1,5,house1,red-blue,regular,NA,l,l,0.354565,1,4
,,,,,,,,,,,,,,,,
1,24,male,1,1,1,oddball1,6,house2,blue-red,regular,NA,l,l,0.3420032,1,5
,,,,,,,,,,,,,,,,
1,24,male,1,1,1,oddball1,7,house2,red-blue,oddball,NA,l,a,0.739678599,0,5
,,,,,,,,,,,,,,,,
1,24,male,1,1,1,oddball1,8,house1,blue-red,regular,NA,a,a,0.6658406,1,6
,,,,,,,,,,,,,,,,
1,24,male,1,1,1,oddball1,9,house2,blue-red,regular,NA,l,l,0.329286601,1,7
,,,,,,,,,,,,,,,,
1,24,male,1,1,1,oddball1,10,house1,red-blue,regular,NA,l,l,0.326051701,1,8
,,,,,,,,,,,,,,,,
1,24,male,1,1,1,oddball1,11,house1,red-blue,regular,NA,l,a,0.543111499,0,8
,,,,,,,,,,,,,,,,
1,24,male,1,1,1,oddball1,12,house2,red-blue,oddball,NA,l,a,0.545269301,0,8
,,,,,,,,,,,,,,,,
1,24,male,1,1,1,oddball1,13,house2,red-blue,regular,NA,a,a,0.287513301,1,9
,,,,,,,,,,,,,,,,
1,24,male,1,1,1,oddball1,14,house2,blue-red,regular,NA,l,l,0.3173567,1,10
,,,,,,,,,,,,,,,,
1,24,male,1,1,1,oddball1,15,house2,blue-red,oddball,NA,a,l,0.3128032,0,10
,,,,,,,,,,,,,,,,
1,24,male,1,1,1,oddball1,16,house1,red-blue,regular,NA,l,l,0.3139633,1,11
,,,,,,,,,,,,,,,,
1,24,male,1,1,1,oddball1,17,house1,red-blue,regular,NA,l,l,0.397783201,1,12
,,,,,,,,,,,,,,,,
1,24,male,1,1,1,oddball1,18,house1,red-blue,oddball,NA,a,l,0.380550101,0,12
,,,,,,,,,,,,,,,,
1,24,male,1,1,1,oddball1,19,house2,red-blue,regular,NA,a,l,0.346967101,0,12
,,,,,,,,,,,,,,,,
1,24,male,1,1,1,oddball1,20,house1,red-blue,regular,NA,l,NA,NA,0,12
,,,,,,,,,,,,,,,,
1,24,male,1,1,1,oddball1,21,house2,red-blue,regular,NA,a,a,0.318416499,1,13
,,,,,,,,,,,,,,,,
1,24,male,1,1,1,oddball1,22,house2,red-blue,regular,NA,a,l,0.480340099,0,13
,,,,,,,,,,,,,,,,
1,24,male,1,1,1,oddball1,23,house1,blue-red,regular,NA,a,a,0.5096743,1,14
,,,,,,,,,,,,,,,,
1,24,male,1,1,1,oddball1,24,house2,blue-red,regular,NA,l,l,0.465377599,1,15
,,,,,,,,,,,,,,,,
1,24,male,1,1,1,oddball1,25,house2,blue-red,oddball,NA,a,l,0.6582845,0,15
,,,,,,,,,,,,,,,,
1,24,male,1,1,1,oddball1,26,house2,red-blue,regular,NA,a,NA,-4.283432201,0,15
,,,,,,,,,,,,,,,,
1,24,male,1,1,1,oddball1,27,house1,blue-red,regular,NA,a,a,0.4649741,1,16
,,,,,,,,,,,,,,,,
1,24,male,1,1,1,oddball1,28,house2,red-blue,regular,NA,a,a,0.4158276,1,17
,,,,,,,,,,,,,,,,
1,24,male,1,1,1,oddball1,29,house2,red-blue,regular,NA,a,a,0.295704201,1,18
,,,,,,,,,,,,,,,,
1,24,male,1,1,1,oddball1,30,house2,red-blue,regular,NA,a,a,0.341599099,1,19
,,,,,,,,,,,,,,,,
1,24,male,1,1,2,oddball2,1,house1,blue-red,oddball,NA,a,a,0.3554141,1,1
,,,,,,,,,,,,,,,,
1,24,male,1,1,2,oddball2,2,house2,blue-red,regular,NA,a,l,0.2850246,0,1
,,,,,,,,,,,,,,,,
1,24,male,1,1,2,oddball2,3,house2,red-blue,regular,NA,l,a,0.355794301,0,1
,,,,,,,,,,,,,,,,
1,24,male,1,1,2,oddball2,4,house2,blue-red,regular,NA,a,a,0.312776001,1,2
,,,,,,,,,,,,,,,,
1,24,male,1,1,2,oddball2,5,house1,blue-red,regular,NA,l,l,0.312302699,1,3
,,,,,,,,,,,,,,,,
1,24,male,1,1,2,oddball2,6,house1,red-blue,regular,NA,a,a,0.410952199,1,4
,,,,,,,,,,,,,,,,
1,24,male,1,1,2,oddball2,7,house1,blue-red,oddball,NA,a,a,0.7268511,1,5
,,,,,,,,,,,,,,,,
1,24,male,1,1,2,oddball2,8,house2,blue-red,regular,NA,a,a,0.3108973,1,6
,,,,,,,,,,,,,,,,
1,24,male,1,1,2,oddball2,9,house1,blue-red,regular,NA,l,l,0.556983201,1,7
,,,,,,,,,,,,,,,,
1,24,male,1,1,2,oddball2,10,house1,blue-red,regular,NA,l,l,0.346649401,1,8
,,,,,,,,,,,,,,,,
1,24,male,1,1,2,oddball2,11,house2,red-blue,oddball,NA,a,l,0.419820599,0,8
,,,,,,,,,,,,,,,,
1,24,male,1,1,2,oddball2,12,house1,red-blue,regular,NA,a,l,0.4607163,0,8
,,,,,,,,,,,,,,,,
1,24,male,1,1,2,oddball2,13,house2,red-blue,regular,NA,l,l,0.6090937,1,9
,,,,,,,,,,,,,,,,
1,24,male,1,1,2,oddball2,14,house1,red-blue,oddball,NA,l,a,0.311140001,0,9
,,,,,,,,,,,,,,,,
1,24,male,1,1,2,oddball2,15,house1,red-blue,regular,NA,a,a,0.3307424,1,10
,,,,,,,,,,,,,,,,
1,24,male,1,1,2,oddball2,16,house1,red-blue,regular,NA,a,a,0.454583399,1,11
,,,,,,,,,,,,,,,,
1,24,male,1,1,2,oddball2,17,house1,blue-red,regular,NA,l,l,0.434705501,1,12
,,,,,,,,,,,,,,,,
1,24,male,1,1,2,oddball2,18,house2,blue-red,regular,NA,a,a,0.2960549,1,13
,,,,,,,,,,,,,,,,
1,24,male,1,1,2,oddball2,19,house2,red-blue,regular,NA,l,l,0.317538301,1,14
,,,,,,,,,,,,,,,,
1,24,male,1,1,2,oddball2,20,house2,red-blue,oddball,NA,a,l,0.3343846,0,14
,,,,,,,,,,,,,,,,
1,24,male,1,1,2,oddball2,21,house2,red-blue,regular,NA,l,l,0.485015798,1,15
,,,,,,,,,,,,,,,,
1,24,male,1,1,2,oddball2,22,house1,blue-red,regular,NA,l,l,0.380465299,1,16
,,,,,,,,,,,,,,,,
1,24,male,1,1,2,oddball2,23,house2,blue-red,regular,NA,a,a,0.3332904,1,17
,,,,,,,,,,,,,,,,
1,24,male,1,1,2,oddball2,24,house1,red-blue,oddball,NA,l,a,0.346345302,0,17
,,,,,,,,,,,,,,,,
1,24,male,1,1,2,oddball2,25,house2,red-blue,regular,NA,l,l,0.348773399,1,18
,,,,,,,,,,,,,,,,
1,24,male,1,1,2,oddball2,26,house2,red-blue,regular,NA,l,l,0.316651901,1,19
,,,,,,,,,,,,,,,,
1,24,male,1,1,2,oddball2,27,house2,blue-red,regular,NA,a,a,0.3471842,1,20
,,,,,,,,,,,,,,,,
1,24,male,1,1,2,oddball2,28,house1,blue-red,regular,NA,l,l,0.3448292,1,21
,,,,,,,,,,,,,,,,
1,24,male,1,1,2,oddball2,29,house1,blue-red,regular,NA,l,l,0.3576502,1,22
,,,,,,,,,,,,,,,,
1,24,male,1,1,2,oddball2,30,house2,red-blue,regular,NA,l,l,0.357723,1,23
,,,,,,,,,,,,,,,,
1,24,male,1,1,3,changepoint,1,stimuli/house1.png,stimuli/red-blue.png,regular,steady,l,a,0.3938739,0,0
,,,,,,,,,,,,,,,,
1,24,male,1,1,3,changepoint,2,stimuli/house1.png,stimuli/red-blue.png,regular,steady,l,l,0.307229199,1,1
,,,,,,,,,,,,,,,,
1,24,male,1,1,3,changepoint,3,stimuli/house2.png,stimuli/red-blue.png,regular,steady,a,l,0.7339352,0,1
,,,,,,,,,,,,,,,,
1,24,male,1,1,3,changepoint,4,stimuli/house1.png,stimuli/red-blue.png,oddball,switch,a,l,0.695370501,0,1
,,,,,,,,,,,,,,,,
1,24,male,1,1,3,changepoint,5,stimuli/house1.png,stimuli/red-blue.png,oddball,steady,a,l,0.4865239,0,1
,,,,,,,,,,,,,,,,
1,24,male,1,1,3,changepoint,6,stimuli/house1.png,stimuli/blue-red.png,oddball,steady,l,a,0.415144501,0,1
,,,,,,,,,,,,,,,,
1,24,male,1,1,3,changepoint,7,stimuli/house1.png,stimuli/blue-red.png,oddball,steady,l,l,0.3083554,1,2
,,,,,,,,,,,,,,,,
1,24,male,1,1,3,changepoint,8,stimuli/house2.png,stimuli/blue-red.png,oddball,steady,a,a,0.468343599,1,3
,,,,,,,,,,,,,,,,
1,24,male,1,1,3,changepoint,9,stimuli/house1.png,stimuli/red-blue.png,oddball,steady,a,a,0.388495501,1,4
,,,,,,,,,,,,,,,,
1,24,male,1,1,3,changepoint,10,stimuli/house2.png,stimuli/red-blue.png,oddball,steady,l,l,0.449495999,1,5
,,,,,,,,,,,,,,,,
1,24,male,1,1,3,changepoint,11,stimuli/house2.png,stimuli/red-blue.png,regular,switch,a,l,0.311804801,0,5
,,,,,,,,,,,,,,,,
1,24,male,1,1,3,changepoint,12,stimuli/house1.png,stimuli/blue-red.png,regular,steady,a,l,0.318293098,0,5
,,,,,,,,,,,,,,,,
1,24,male,1,1,3,changepoint,13,stimuli/house1.png,stimuli/red-blue.png,regular,steady,l,l,0.281181099,1,6
,,,,,,,,,,,,,,,,
1,24,male,1,1,3,changepoint,14,stimuli/house2.png,stimuli/red-blue.png,regular,steady,a,a,0.661760001,1,7
,,,,,,,,,,,,,,,,
1,24,male,1,1,3,changepoint,15,stimuli/house1.png,stimuli/blue-red.png,oddball,switch,l,a,0.3460865,0,7
,,,,,,,,,,,,,,,,
1,24,male,1,1,3,changepoint,16,stimuli/house1.png,stimuli/red-blue.png,oddball,steady,a,l,0.342852199,0,7
,,,,,,,,,,,,,,,,
1,24,male,1,1,3,changepoint,17,stimuli/house1.png,stimuli/blue-red.png,oddball,steady,l,a,0.321605401,0,7
,,,,,,,,,,,,,,,,
1,24,male,1,1,3,changepoint,18,stimuli/house1.png,stimuli/blue-red.png,regular,switch,a,a,0.437612699,1,8
,,,,,,,,,,,,,,,,
1,24,male,1,1,3,changepoint,19,stimuli/house2.png,stimuli/red-blue.png,regular,steady,a,a,0.3282598,1,9
,,,,,,,,,,,,,,,,
1,24,male,1,1,3,changepoint,20,stimuli/house2.png,stimuli/red-blue.png,regular,steady,a,a,0.278684098,1,10
,,,,,,,,,,,,,,,,
1,24,male,1,1,3,changepoint,21,stimuli/house1.png,stimuli/blue-red.png,regular,steady,a,a,0.454659101,1,11
,,,,,,,,,,,,,,,,
1,24,male,1,1,3,changepoint,22,stimuli/house2.png,stimuli/blue-red.png,regular,steady,l,l,0.285236999,1,12
,,,,,,,,,,,,,,,,
1,24,male,1,1,3,changepoint,23,stimuli/house1.png,stimuli/blue-red.png,regular,steady,a,a,0.262396701,1,13
,,,,,,,,,,,,,,,,
1,24,male,1,1,3,changepoint,24,stimuli/house1.png,stimuli/red-blue.png,oddball,switch,a,l,0.337938901,0,13
,,,,,,,,,,,,,,,,
1,24,male,1,1,3,changepoint,25,stimuli/house2.png,stimuli/blue-red.png,oddball,steady,a,l,0.416367801,0,13
,,,,,,,,,,,,,,,,
1,24,male,1,1,3,changepoint,26,stimuli/house1.png,stimuli/red-blue.png,oddball,steady,a,l,0.481829001,0,13
,,,,,,,,,,,,,,,,
1,24,male,1,1,3,changepoint,27,stimuli/house2.png,stimuli/red-blue.png,oddball,steady,l,l,0.354347998,1,14
,,,,,,,,,,,,,,,,
1,24,male,1,1,3,changepoint,28,stimuli/house2.png,stimuli/blue-red.png,regular,switch,l,a,0.321165899,0,14
,,,,,,,,,,,,,,,,
1,24,male,1,1,3,changepoint,29,stimuli/house2.png,stimuli/blue-red.png,regular,steady,l,a,0.325634399,0,14
,,,,,,,,,,,,,,,,
1,24,male,1,1,3,changepoint,30,stimuli/house2.png,stimuli/red-blue.png,regular,steady,a,a,0.312956499,1,15
,,,,,,,,,,,,,,,,
1,24,male,1,1,3,changepoint,31,stimuli/house2.png,stimuli/blue-red.png,regular,steady,l,l,0.2446895,1,16
,,,,,,,,,,,,,,,,
1,24,male,1,1,3,changepoint,32,stimuli/house1.png,stimuli/blue-red.png,regular,steady,a,a,0.2532409,1,17
,,,,,,,,,,,,,,,,
1,24,male,1,1,3,changepoint,33,stimuli/house1.png,stimuli/red-blue.png,regular,steady,l,l,0.307623001,1,18
,,,,,,,,,,,,,,,,
1,24,male,1,1,3,changepoint,34,stimuli/house2.png,stimuli/blue-red.png,oddball,switch,a,l,0.3398802,0,18
,,,,,,,,,,,,,,,,
1,24,male,1,1,3,changepoint,35,stimuli/house2.png,stimuli/blue-red.png,oddball,steady,a,a,0.287641201,1,19
,,,,,,,,,,,,,,,,
1,24,male,1,1,3,changepoint,36,stimuli/house2.png,stimuli/blue-red.png,oddball,steady,a,a,0.333878499,1,20
,,,,,,,,,,,,,,,,
1,24,male,1,1,3,changepoint,37,stimuli/house2.png,stimuli/red-blue.png,oddball,steady,l,l,0.298294701,1,21
,,,,,,,,,,,,,,,,
1,24,male,1,1,3,changepoint,38,stimuli/house2.png,stimuli/blue-red.png,oddball,steady,a,a,0.4001156,1,22
,,,,,,,,,,,,,,,,
1,24,male,1,1,3,changepoint,39,stimuli/house1.png,stimuli/blue-red.png,regular,switch,a,l,0.265518699,0,22
,,,,,,,,,,,,,,,,
1,24,male,1,1,3,changepoint,40,stimuli/house2.png,stimuli/red-blue.png,regular,steady,a,a,0.3100497,1,23
,,,,,,,,,,,,,,,,
1,24,male,1,1,3,changepoint,41,stimuli/house2.png,stimuli/red-blue.png,regular,steady,a,a,0.331813,1,24
,,,,,,,,,,,,,,,,
1,24,male,1,1,3,changepoint,42,stimuli/house2.png,stimuli/red-blue.png,regular,steady,a,a,0.318898899,1,25
,,,,,,,,,,,,,,,,
1,24,male,1,1,3,changepoint,43,stimuli/house2.png,stimuli/blue-red.png,regular,steady,l,l,0.2955417,1,26
,,,,,,,,,,,,,,,,
1,24,male,1,1,3,changepoint,44,stimuli/house2.png,stimuli/red-blue.png,oddball,switch,l,a,0.315499,0,26
,,,,,,,,,,,,,,,,
1,24,male,1,1,3,changepoint,45,stimuli/house1.png,stimuli/red-blue.png,oddball,steady,a,l,0.327862201,0,26
,,,,,,,,,,,,,,,,
1,24,male,1,1,3,changepoint,46,stimuli/house2.png,stimuli/blue-red.png,oddball,steady,a,a,0.3204327,1,27
,,,,,,,,,,,,,,,,
1,24,male,1,1,3,changepoint,47,stimuli/house2.png,stimuli/blue-red.png,oddball,steady,a,a,0.459284401,1,28
,,,,,,,,,,,,,,,,
1,24,male,1,1,3,changepoint,48,stimuli/house2.png,stimuli/blue-red.png,regular,switch,l,a,0.3138768,0,28
,,,,,,,,,,,,,,,,
1,24,male,1,1,3,changepoint,49,stimuli/house1.png,stimuli/red-blue.png,regular,steady,l,a,0.590701001,0,28
,,,,,,,,,,,,,,,,
1,24,male,1,1,3,changepoint,50,stimuli/house1.png,stimuli/red-blue.png,regular,steady,l,l,0.3226933,1,29
,,,,,,,,,,,,,,,,
1,24,male,1,1,3,changepoint,51,stimuli/house2.png,stimuli/red-blue.png,regular,steady,a,a,0.345764201,1,30
,,,,,,,,,,,,,,,,
1,24,male,1,1,3,changepoint,52,stimuli/house2.png,stimuli/red-blue.png,oddball,switch,l,a,0.3140848,0,30
,,,,,,,,,,,,,,,,
1,24,male,1,1,3,changepoint,53,stimuli/house2.png,stimuli/blue-red.png,oddball,steady,a,l,0.351299999,0,30
,,,,,,,,,,,,,,,,
1,24,male,1,1,3,changepoint,54,stimuli/house2.png,stimuli/blue-red.png,oddball,steady,a,l,0.256904,0,30
,,,,,,,,,,,,,,,,
1,24,male,1,1,3,changepoint,55,stimuli/house2.png,stimuli/blue-red.png,oddball,steady,a,a,0.5211845,1,31
,,,,,,,,,,,,,,,,
1,24,male,1,1,3,changepoint,56,stimuli/house2.png,stimuli/red-blue.png,oddball,steady,l,l,0.290855499,1,32
,,,,,,,,,,,,,,,,
1,24,male,1,1,3,changepoint,57,stimuli/house2.png,stimuli/blue-red.png,regular,switch,l,a,0.2966686,0,32
,,,,,,,,,,,,,,,,
1,24,male,1,1,3,changepoint,58,stimuli/house1.png,stimuli/blue-red.png,regular,steady,a,a,0.337631799,1,33
,,,,,,,,,,,,,,,,
1,24,male,1,1,3,changepoint,59,stimuli/house1.png,stimuli/red-blue.png,regular,steady,l,l,0.324215099,1,34
,,,,,,,,,,,,,,,,
1,24,male,1,1,4,oddball1,1,house2,red-blue,regular,NA,a,a,0.315486999,1,1
,,,,,,,,,,,,,,,,
1,24,male,1,1,4,oddball1,2,house1,blue-red,oddball,NA,l,a,0.3266101,0,1
,,,,,,,,,,,,,,,,
1,24,male,1,1,4,oddball1,3,house2,red-blue,regular,NA,a,l,0.481141901,0,1
,,,,,,,,,,,,,,,,
1,24,male,1,1,4,oddball1,4,house1,red-blue,regular,NA,l,l,0.2717705,1,2
,,,,,,,,,,,,,,,,
1,24,male,1,1,4,oddball1,5,house2,red-blue,oddball,NA,l,a,0.308985,0,2
,,,,,,,,,,,,,,,,
1,24,male,1,1,4,oddball1,6,house1,blue-red,regular,NA,a,l,0.363557899,0,2
,,,,,,,,,,,,,,,,
1,24,male,1,1,4,oddball1,7,house1,blue-red,regular,NA,a,a,0.4137816,1,3
,,,,,,,,,,,,,,,,
1,24,male,1,1,4,oddball1,8,house1,blue-red,oddball,NA,l,a,0.314758299,0,3
,,,,,,,,,,,,,,,,
1,24,male,1,1,4,oddball1,9,house1,red-blue,regular,NA,l,l,0.334671499,1,4
,,,,,,,,,,,,,,,,
1,24,male,1,1,4,oddball1,10,house2,blue-red,regular,NA,l,l,0.323872801,1,5
,,,,,,,,,,,,,,,,
1,24,male,1,1,4,oddball1,11,house2,blue-red,regular,NA,l,l,0.3208526,1,6
,,,,,,,,,,,,,,,,
1,24,male,1,1,4,oddball1,12,house2,blue-red,regular,NA,l,l,0.354948599,1,7
,,,,,,,,,,,,,,,,
1,24,male,1,1,4,oddball1,13,house2,red-blue,oddball,NA,l,a,0.436881499,0,7
,,,,,,,,,,,,,,,,
1,24,male,1,1,4,oddball1,14,house1,red-blue,regular,NA,l,l,0.332859401,1,8
,,,,,,,,,,,,,,,,
1,24,male,1,1,4,oddball1,15,house2,blue-red,regular,NA,l,l,0.3172577,1,9
,,,,,,,,,,,,,,,,
1,24,male,1,1,4,oddball1,16,house1,blue-red,regular,NA,a,a,0.3959645,1,10
,,,,,,,,,,,,,,,,
1,24,male,1,1,4,oddball1,17,house2,blue-red,regular,NA,l,l,0.254913101,1,11
,,,,,,,,,,,,,,,,
1,24,male,1,1,4,oddball1,18,house1,red-blue,regular,NA,l,a,0.2224834,0,11
,,,,,,,,,,,,,,,,
1,24,male,1,1,4,oddball1,19,house2,blue-red,oddball,NA,a,l,0.398268301,0,11
,,,,,,,,,,,,,,,,
1,24,male,1,1,4,oddball1,20,house1,red-blue,regular,NA,l,l,0.3972388,1,12
,,,,,,,,,,,,,,,,
1,24,male,1,1,4,oddball1,21,house2,red-blue,regular,NA,a,a,0.303879499,1,13
,,,,,,,,,,,,,,,,
1,24,male,1,1,4,oddball1,22,house2,red-blue,regular,NA,a,l,0.325921599,0,13
,,,,,,,,,,,,,,,,
1,24,male,1,1,4,oddball1,23,house1,red-blue,oddball,NA,a,l,0.307654601,0,13
,,,,,,,,,,,,,,,,
1,24,male,1,1,4,oddball1,24,house1,red-blue,regular,NA,l,l,0.4957496,1,14
,,,,,,,,,,,,,,,,
1,24,male,1,1,4,oddball1,25,house2,blue-red,regular,NA,l,l,0.6159351,1,15
,,,,,,,,,,,,,,,,
1,24,male,1,1,4,oddball1,26,house2,blue-red,regular,NA,l,a,0.2679321,0,15
,,,,,,,,,,,,,,,,
1,24,male,1,1,4,oddball1,27,house1,blue-red,regular,NA,a,a,0.329418501,1,16
,,,,,,,,,,,,,,,,
1,24,male,1,1,4,oddball1,28,house1,blue-red,regular,NA,a,a,0.3601193,1,17
,,,,,,,,,,,,,,,,
1,24,male,1,1,4,oddball1,29,house2,blue-red,regular,NA,l,l,0.360985199,1,18
,,,,,,,,,,,,,,,,
1,24,male,1,1,4,oddball1,30,house2,blue-red,regular,NA,l,l,0.304513099,1,19
,,,,,,,,,,,,,,,,
1,24,male,1,1,5,oddball2,1,house2,red-blue,oddball,NA,a,l,0.318698,0,0
,,,,,,,,,,,,,,,,
1,24,male,1,1,5,oddball2,2,house1,blue-red,regular,NA,l,l,0.3549322,1,1
,,,,,,,,,,,,,,,,
1,24,male,1,1,5,oddball2,3,house1,blue-red,regular,NA,l,a,0.306222001,0,1
,,,,,,,,,,,,,,,,
1,24,male,1,1,5,oddball2,4,house2,red-blue,oddball,NA,a,l,0.434493899,0,1
,,,,,,,,,,,,,,,,
1,24,male,1,1,5,oddball2,5,house2,red-blue,regular,NA,l,a,0.332978401,0,1
,,,,,,,,,,,,,,,,
1,24,male,1,1,5,oddball2,6,house1,blue-red,regular,NA,l,a,0.482780201,0,1
,,,,,,,,,,,,,,,,
1,24,male,1,1,5,oddball2,7,house1,red-blue,oddball,NA,l,a,0.214740599,0,1
,,,,,,,,,,,,,,,,
1,24,male,1,1,5,oddball2,8,house1,red-blue,regular,NA,a,l,0.237400701,0,1
,,,,,,,,,,,,,,,,
1,24,male,1,1,5,oddball2,9,house2,red-blue,regular,NA,l,l,0.344047301,1,2
,,,,,,,,,,,,,,,,
1,24,male,1,1,5,oddball2,10,house2,blue-red,regular,NA,a,a,0.3292681,1,3
,,,,,,,,,,,,,,,,
1,24,male,1,1,5,oddball2,11,house2,red-blue,regular,NA,l,l,0.284478899,1,4
,,,,,,,,,,,,,,,,
1,24,male,1,1,5,oddball2,12,house2,blue-red,regular,NA,a,a,0.355848301,1,5
,,,,,,,,,,,,,,,,
1,24,male,1,1,5,oddball2,13,house2,blue-red,regular,NA,a,a,0.4577461,1,6
,,,,,,,,,,,,,,,,
1,24,male,1,1,5,oddball2,14,house2,blue-red,regular,NA,a,a,0.437509,1,7
,,,,,,,,,,,,,,,,
1,24,male,1,1,5,oddball2,15,house2,red-blue,oddball,NA,a,l,0.449154701,0,7
,,,,,,,,,,,,,,,,
1,24,male,1,1,5,oddball2,16,house1,red-blue,regular,NA,a,a,0.3430399,1,8
,,,,,,,,,,,,,,,,
1,24,male,1,1,5,oddball2,17,house2,blue-red,regular,NA,a,a,0.3858204,1,9
,,,,,,,,,,,,,,,,
1,24,male,1,1,5,oddball2,18,house2,red-blue,regular,NA,l,l,0.3867507,1,10
,,,,,,,,,,,,,,,,
1,24,male,1,1,5,oddball2,19,house1,blue-red,regular,NA,l,a,0.3293679,0,10
,,,,,,,,,,,,,,,,
1,24,male,1,1,5,oddball2,20,house1,blue-red,regular,NA,l,l,0.297044899,1,11
,,,,,,,,,,,,,,,,
1,24,male,1,1,5,oddball2,21,house1,red-blue,oddball,NA,l,a,0.406875599,0,11
,,,,,,,,,,,,,,,,
1,24,male,1,1,5,oddball2,22,house2,red-blue,regular,NA,l,l,0.4003643,1,12
,,,,,,,,,,,,,,,,
1,24,male,1,1,5,oddball2,23,house1,blue-red,regular,NA,l,l,0.3581276,1,13
,,,,,,,,,,,,,,,,
1,24,male,1,1,5,oddball2,24,house1,blue-red,regular,NA,l,a,0.701625399,0,13
,,,,,,,,,,,,,,,,
1,24,male,1,1,5,oddball2,25,house1,blue-red,oddball,NA,a,l,0.4588004,0,13
,,,,,,,,,,,,,,,,
1,24,male,1,1,5,oddball2,26,house2,red-blue,regular,NA,l,l,0.454312099,1,14
,,,,,,,,,,,,,,,,
1,24,male,1,1,5,oddball2,27,house1,red-blue,regular,NA,a,a,0.315326001,1,15
,,,,,,,,,,,,,,,,
1,24,male,1,1,5,oddball2,28,house2,blue-red,regular,NA,a,l,0.4830338,0,15
,,,,,,,,,,,,,,,,
1,24,male,1,1,5,oddball2,29,house1,red-blue,regular,NA,a,a,0.614412099,1,16
,,,,,,,,,,,,,,,,
1,24,male,1,1,5,oddball2,30,house1,blue-red,regular,NA,l,l,0.3293526,1,17
,,,,,,,,,,,,,,,,
1,24,male,1,1,6,changepoint,1,stimuli/house2.png,stimuli/blue-red.png,regular,steady,l,a,0.678915899,0,0
,,,,,,,,,,,,,,,,
1,24,male,1,1,6,changepoint,2,stimuli/house2.png,stimuli/red-blue.png,regular,steady,a,a,0.329748999,1,1
,,,,,,,,,,,,,,,,
1,24,male,1,1,6,changepoint,3,stimuli/house1.png,stimuli/red-blue.png,regular,steady,l,l,0.5485569,1,2
,,,,,,,,,,,,,,,,
1,24,male,1,1,6,changepoint,4,stimuli/house2.png,stimuli/red-blue.png,regular,steady,a,a,0.2779528,1,3
,,,,,,,,,,,,,,,,
1,24,male,1,1,6,changepoint,5,stimuli/house2.png,stimuli/red-blue.png,regular,steady,a,l,0.3328162,0,3
,,,,,,,,,,,,,,,,
1,24,male,1,1,6,changepoint,6,stimuli/house2.png,stimuli/red-blue.png,oddball,switch,l,a,0.4174485,0,3
,,,,,,,,,,,,,,,,
1,24,male,1,1,6,changepoint,7,stimuli/house2.png,stimuli/blue-red.png,oddball,steady,a,l,0.5102612,0,3
,,,,,,,,,,,,,,,,
1,24,male,1,1,6,changepoint,8,stimuli/house1.png,stimuli/blue-red.png,oddball,steady,l,a,0.510180799,0,3
,,,,,,,,,,,,,,,,
1,24,male,1,1,6,changepoint,9,stimuli/house2.png,stimuli/blue-red.png,oddball,steady,a,a,0.303975301,1,4
,,,,,,,,,,,,,,,,
1,24,male,1,1,6,changepoint,10,stimuli/house1.png,stimuli/red-blue.png,regular,switch,l,a,0.639069701,0,4
,,,,,,,,,,,,,,,,
1,24,male,1,1,6,changepoint,11,stimuli/house2.png,stimuli/red-blue.png,regular,steady,a,l,0.3963456,0,4
,,,,,,,,,,,,,,,,
1,24,male,1,1,6,changepoint,12,stimuli/house2.png,stimuli/red-blue.png,regular,steady,a,a,0.286496401,1,5
,,,,,,,,,,,,,,,,
1,24,male,1,1,6,changepoint,13,stimuli/house2.png,stimuli/blue-red.png,regular,steady,l,l,0.330032401,1,6
,,,,,,,,,,,,,,,,
1,24,male,1,1,6,changepoint,14,stimuli/house1.png,stimuli/red-blue.png,regular,steady,l,l,0.4231521,1,7
,,,,,,,,,,,,,,,,
1,24,male,1,1,6,changepoint,15,stimuli/house1.png,stimuli/red-blue.png,regular,steady,l,l,0.310848301,1,8
,,,,,,,,,,,,,,,,
1,24,male,1,1,6,changepoint,16,stimuli/house1.png,stimuli/blue-red.png,oddball,switch,l,a,0.344276799,0,8
,,,,,,,,,,,,,,,,
1,24,male,1,1,6,changepoint,17,stimuli/house1.png,stimuli/red-blue.png,oddball,steady,a,a,0.296616599,1,9
,,,,,,,,,,,,,,,,
1,24,male,1,1,6,changepoint,18,stimuli/house2.png,stimuli/blue-red.png,oddball,steady,a,a,0.319717301,1,10
,,,,,,,,,,,,,,,,
1,24,male,1,1,6,changepoint,19,stimuli/house1.png,stimuli/blue-red.png,oddball,steady,l,l,0.288368201,1,11
,,,,,,,,,,,,,,,,
1,24,male,1,1,6,changepoint,20,stimuli/house2.png,stimuli/red-blue.png,oddball,steady,l,l,0.339418501,1,12
,,,,,,,,,,,,,,,,
1,24,male,1,1,6,changepoint,21,stimuli/house2.png,stimuli/red-blue.png,regular,switch,a,l,0.3659009,0,12
,,,,,,,,,,,,,,,,
1,24,male,1,1,6,changepoint,22,stimuli/house1.png,stimuli/blue-red.png,regular,steady,a,l,0.278409401,0,12
,,,,,,,,,,,,,,,,
1,24,male,1,1,6,changepoint,23,stimuli/house1.png,stimuli/blue-red.png,regular,steady,a,a,0.227514701,1,13
,,,,,,,,,,,,,,,,
1,24,male,1,1,6,changepoint,24,stimuli/house2.png,stimuli/blue-red.png,regular,steady,l,l,0.327688001,1,14
,,,,,,,,,,,,,,,,
1,24,male,1,1,6,changepoint,25,stimuli/house1.png,stimuli/red-blue.png,oddball,switch,a,l,0.6592905,0,14
,,,,,,,,,,,,,,,,
1,24,male,1,1,6,changepoint,26,stimuli/house2.png,stimuli/blue-red.png,oddball,steady,a,l,0.417146901,0,14
,,,,,,,,,,,,,,,,
1,24,male,1,1,6,changepoint,27,stimuli/house2.png,stimuli/red-blue.png,oddball,steady,l,a,0.4699309,0,14
,,,,,,,,,,,,,,,,
1,24,male,1,1,6,changepoint,28,stimuli/house1.png,stimuli/red-blue.png,oddball,steady,a,l,0.531753499,0,14
,,,,,,,,,,,,,,,,
1,24,male,1,1,6,changepoint,29,stimuli/house2.png,stimuli/blue-red.png,oddball,steady,a,a,0.3591248,1,15
,,,,,,,,,,,,,,,,
1,24,male,1,1,6,changepoint,30,stimuli/house2.png,stimuli/blue-red.png,regular,switch,l,a,0.4069694,0,15
,,,,,,,,,,,,,,,,
1,24,male,1,1,6,changepoint,31,stimuli/house1.png,stimuli/red-blue.png,regular,steady,l,l,0.3567033,1,16
,,,,,,,,,,,,,,,,
1,24,male,1,1,6,changepoint,32,stimuli/house1.png,stimuli/blue-red.png,regular,steady,a,a,0.3021117,1,17
,,,,,,,,,,,,,,,,
1,24,male,1,1,6,changepoint,33,stimuli/house2.png,stimuli/blue-red.png,regular,steady,l,l,0.340405,1,18
,,,,,,,,,,,,,,,,
1,24,male,1,1,6,changepoint,34,stimuli/house2.png,stimuli/red-blue.png,oddball,switch,l,a,0.274933498,0,18
,,,,,,,,,,,,,,,,
1,24,male,1,1,6,changepoint,35,stimuli/house2.png,stimuli/blue-red.png,oddball,steady,a,l,0.0838509,0,18
,,,,,,,,,,,,,,,,
1,24,male,1,1,6,changepoint,36,stimuli/house1.png,stimuli/blue-red.png,oddball,steady,l,l,0.431224601,1,19
,,,,,,,,,,,,,,,,
1,24,male,1,1,6,changepoint,37,stimuli/house2.png,stimuli/blue-red.png,oddball,steady,a,l,0.4633749,0,19
,,,,,,,,,,,,,,,,
1,24,male,1,1,6,changepoint,38,stimuli/house2.png,stimuli/red-blue.png,oddball,steady,l,l,0.5218725,1,20
,,,,,,,,,,,,,,,,
1,24,male,1,1,6,changepoint,39,stimuli/house1.png,stimuli/blue-red.png,oddball,steady,l,l,0.333533999,1,21
,,,,,,,,,,,,,,,,
1,24,male,1,1,6,changepoint,40,stimuli/house2.png,stimuli/blue-red.png,oddball,steady,a,a,0.5643677,1,22
,,,,,,,,,,,,,,,,
1,24,male,1,1,6,changepoint,41,stimuli/house1.png,stimuli/red-blue.png,regular,switch,l,a,0.4100195,0,22
,,,,,,,,,,,,,,,,
1,24,male,1,1,6,changepoint,42,stimuli/house2.png,stimuli/red-blue.png,regular,steady,a,l,0.3727009,0,22
,,,,,,,,,,,,,,,,
1,24,male,1,1,6,changepoint,43,stimuli/house1.png,stimuli/red-blue.png,regular,steady,l,a,0.416211601,0,22
,,,,,,,,,,,,,,,,
1,24,male,1,1,6,changepoint,44,stimuli/house1.png,stimuli/blue-red.png,oddball,switch,l,a,0.5593688,0,22
,,,,,,,,,,,,,,,,
1,24,male,1,1,6,changepoint,45,stimuli/house2.png,stimuli/red-blue.png,oddball,steady,l,l,0.4979227,1,23
,,,,,,,,,,,,,,,,
1,24,male,1,1,6,changepoint,46,stimuli/house1.png,stimuli/red-blue.png,oddball,steady,a,a,0.731928999,1,24
,,,,,,,,,,,,,,,,
1,24,male,1,1,6,changepoint,47,stimuli/house1.png,stimuli/blue-red.png,oddball,steady,l,l,0.3681035,1,25
,,,,,,,,,,,,,,,,
1,24,male,1,1,6,changepoint,48,stimuli/house2.png,stimuli/blue-red.png,oddball,steady,a,a,0.271172199,1,26
,,,,,,,,,,,,,,,,
1,24,male,1,1,6,changepoint,49,stimuli/house1.png,stimuli/blue-red.png,regular,switch,a,l,0.280291399,0,26
,,,,,,,,,,,,,,,,
1,24,male,1,1,6,changepoint,50,stimuli/house1.png,stimuli/red-blue.png,regular,steady,l,a,0.556308201,0,26
,,,,,,,,,,,,,,,,
1,24,male,1,1,6,changepoint,51,stimuli/house2.png,stimuli/red-blue.png,regular,steady,a,a,0.3413401,1,27
,,,,,,,,,,,,,,,,
1,24,male,1,1,6,changepoint,52,stimuli/house2.png,stimuli/red-blue.png,regular,steady,a,l,0.369179601,0,27
,,,,,,,,,,,,,,,,
1,24,male,1,1,6,changepoint,53,stimuli/house1.png,stimuli/red-blue.png,regular,steady,l,a,0.338398399,0,27
,,,,,,,,,,,,,,,,
1,24,male,1,1,6,changepoint,54,stimuli/house1.png,stimuli/blue-red.png,regular,steady,a,NA,-0.301272498,0,27
,,,,,,,,,,,,,,,,
1,24,male,1,1,6,changepoint,55,stimuli/house2.png,stimuli/blue-red.png,regular,steady,l,l,0.3879795,1,28
,,,,,,,,,,,,,,,,
1,24,male,1,1,6,changepoint,56,stimuli/house2.png,stimuli/blue-red.png,oddball,switch,a,a,0.387346601,1,29
,,,,,,,,,,,,,,,,
1,24,male,1,1,6,changepoint,57,stimuli/house1.png,stimuli/red-blue.png,oddball,steady,a,l,0.4055124,0,29
,,,,,,,,,,,,,,,,
1,24,male,1,1,6,changepoint,58,stimuli/house1.png,stimuli/blue-red.png,oddball,steady,l,a,0.363922801,0,29
,,,,,,,,,,,,,,,,
1,24,male,1,1,6,changepoint,59,stimuli/house2.png,stimuli/blue-red.png,oddball,steady,a,l,0.476788301,0,29
,,,,,,,,,,,,,,,,
1,24,male,1,1,6,changepoint,60,stimuli/house2.png,stimuli/red-blue.png,regular,switch,a,l,0.438553199,0,29
,,,,,,,,,,,,,,,,
1,24,male,1,1,7,oddball1,1,house1,blue-red,oddball,NA,l,a,0.337829599,0,0
,,,,,,,,,,,,,,,,
1,24,male,1,1,7,oddball1,2,house1,red-blue,regular,NA,l,a,0.3100226,0,0
,,,,,,,,,,,,,,,,
1,24,male,1,1,7,oddball1,3,house1,red-blue,regular,NA,l,a,0.350184299,0,0
,,,,,,,,,,,,,,,,
1,24,male,1,1,7,oddball1,4,house2,blue-red,regular,NA,l,a,0.482886201,0,0
,,,,,,,,,,,,,,,,
1,24,male,1,1,7,oddball1,5,house1,blue-red,regular,NA,a,a,0.355211699,1,1
,,,,,,,,,,,,,,,,
1,24,male,1,1,7,oddball1,6,house1,blue-red,regular,NA,a,a,0.3233894,1,2
,,,,,,,,,,,,,,,,
1,24,male,1,1,7,oddball1,7,house1,blue-red,regular,NA,a,a,0.323709,1,3
,,,,,,,,,,,,,,,,
1,24,male,1,1,7,oddball1,8,house1,blue-red,regular,NA,a,a,0.311912799,1,4
,,,,,,,,,,,,,,,,
1,24,male,1,1,7,oddball1,9,house1,blue-red,regular,NA,a,a,0.2950304,1,5
,,,,,,,,,,,,,,,,
1,24,male,1,1,7,oddball1,10,house1,red-blue,oddball,NA,a,l,0.3747952,0,5
,,,,,,,,,,,,,,,,
1,24,male,1,1,7,oddball1,11,house1,red-blue,regular,NA,l,NA,NA,0,5
,,,,,,,,,,,,,,,,
1,24,male,1,1,7,oddball1,12,house1,red-blue,regular,NA,l,l,0.3566793,1,6
,,,,,,,,,,,,,,,,
1,24,male,1,1,7,oddball1,13,house1,blue-red,regular,NA,a,a,0.292614199,1,7
,,,,,,,,,,,,,,,,
1,24,male,1,1,7,oddball1,14,house1,red-blue,oddball,NA,a,l,0.315249899,0,7
,,,,,,,,,,,,,,,,
1,24,male,1,1,7,oddball1,15,house1,red-blue,regular,NA,l,l,0.319454599,1,8
,,,,,,,,,,,,,,,,
1,24,male,1,1,7,oddball1,16,house2,blue-red,regular,NA,l,l,0.3456115,1,9
,,,,,,,,,,,,,,,,
1,24,male,1,1,7,oddball1,17,house1,blue-red,oddball,NA,l,a,0.235208299,0,9
,,,,,,,,,,,,,,,,
1,24,male,1,1,7,oddball1,18,house2,red-blue,regular,NA,a,a,0.2860204,1,10
,,,,,,,,,,,,,,,,
1,24,male,1,1,7,oddball1,19,house1,red-blue,regular,NA,l,l,0.302006099,1,11
,,,,,,,,,,,,,,,,
1,24,male,1,1,7,oddball1,20,house1,red-blue,regular,NA,l,a,0.468821099,0,11
,,,,,,,,,,,,,,,,
1,24,male,1,1,7,oddball1,21,house1,blue-red,regular,NA,a,a,0.2851009,1,12
,,,,,,,,,,,,,,,,
1,24,male,1,1,7,oddball1,22,house2,red-blue,oddball,NA,l,a,0.314415399,0,12
,,,,,,,,,,,,,,,,
1,24,male,1,1,7,oddball1,23,house2,blue-red,regular,NA,l,l,0.340719501,1,13
,,,,,,,,,,,,,,,,
1,24,male,1,1,7,oddball1,24,house1,blue-red,regular,NA,a,a,0.352197399,1,14
,,,,,,,,,,,,,,,,
1,24,male,1,1,7,oddball1,25,house1,red-blue,oddball,NA,a,l,0.288264599,0,14
,,,,,,,,,,,,,,,,
1,24,male,1,1,7,oddball1,26,house2,red-blue,regular,NA,a,a,0.311166801,1,15
,,,,,,,,,,,,,,,,
1,24,male,1,1,7,oddball1,27,house2,red-blue,regular,NA,a,a,0.3444163,1,16
,,,,,,,,,,,,,,,,
1,24,male,1,1,7,oddball1,28,house2,red-blue,regular,NA,a,a,0.226895701,1,17
,,,,,,,,,,,,,,,,
1,24,male,1,1,7,oddball1,29,house2,blue-red,regular,NA,l,l,0.321434399,1,18
,,,,,,,,,,,,,,,,
1,24,male,1,1,7,oddball1,30,house2,blue-red,regular,NA,l,l,0.333604598,1,19
,,,,,,,,,,,,,,,,
1,24,male,1,1,8,oddball2,1,house2,red-blue,oddball,NA,a,l,0.509157199,0,0
,,,,,,,,,,,,,,,,
1,24,male,1,1,8,oddball2,2,house1,blue-red,regular,NA,l,a,0.295512201,0,0
,,,,,,,,,,,,,,,,
1,24,male,1,1,8,oddball2,3,house2,blue-red,regular,NA,a,a,0.3811801,1,1
,,,,,,,,,,,,,,,,
1,24,male,1,1,8,oddball2,4,house2,blue-red,oddball,NA,l,a,0.2814948,0,1
,,,,,,,,,,,,,,,,
1,24,male,1,1,8,oddball2,5,house1,blue-red,regular,NA,l,l,0.2430347,1,2
,,,,,,,,,,,,,,,,
1,24,male,1,1,8,oddball2,6,house2,blue-red,regular,NA,a,a,0.276456,1,3
,,,,,,,,,,,,,,,,
1,24,male,1,1,8,oddball2,7,house2,blue-red,regular,NA,a,a,0.3162672,1,4
,,,,,,,,,,,,,,,,
1,24,male,1,1,8,oddball2,8,house1,blue-red,regular,NA,l,l,0.277661899,1,5
,,,,,,,,,,,,,,,,
1,24,male,1,1,8,oddball2,9,house2,red-blue,oddball,NA,a,l,0.3225298,0,5
,,,,,,,,,,,,,,,,
1,24,male,1,1,8,oddball2,10,house1,blue-red,regular,NA,l,l,0.3071585,1,6
,,,,,,,,,,,,,,,,
1,24,male,1,1,8,oddball2,11,house2,red-blue,regular,NA,l,l,0.280501699,1,7
,,,,,,,,,,,,,,,,
1,24,male,1,1,8,oddball2,12,house1,red-blue,regular,NA,a,a,0.325258899,1,8
,,,,,,,,,,,,,,,,
1,24,male,1,1,8,oddball2,13,house1,blue-red,regular,NA,l,l,0.346933899,1,9
,,,,,,,,,,,,,,,,
1,24,male,1,1,8,oddball2,14,house1,red-blue,regular,NA,a,a,0.2935188,1,10
,,,,,,,,,,,,,,,,
1,24,male,1,1,8,oddball2,15,house2,red-blue,regular,NA,l,l,0.3007797,1,11
,,,,,,,,,,,,,,,,
1,24,male,1,1,8,oddball2,16,house1,red-blue,oddball,NA,l,a,0.3023028,0,11
,,,,,,,,,,,,,,,,
1,24,male,1,1,8,oddball2,17,house1,red-blue,regular,NA,a,a,0.324285099,1,12
,,,,,,,,,,,,,,,,
1,24,male,1,1,8,oddball2,18,house1,red-blue,regular,NA,a,a,0.375554102,1,13
,,,,,,,,,,,,,,,,
1,24,male,1,1,8,oddball2,19,house2,red-blue,regular,NA,l,l,0.2924827,1,14
,,,,,,,,,,,,,,,,
1,24,male,1,1,8,oddball2,20,house2,red-blue,oddball,NA,a,l,0.3225713,0,14
,,,,,,,,,,,,,,,,
1,24,male,1,1,8,oddball2,21,house2,red-blue,regular,NA,l,a,0.601762,0,14
,,,,,,,,,,,,,,,,
1,24,male,1,1,8,oddball2,22,house1,blue-red,regular,NA,l,a,0.491298601,0,14
,,,,,,,,,,,,,,,,
1,24,male,1,1,8,oddball2,23,house2,red-blue,regular,NA,l,l,0.376904801,1,15
,,,,,,,,,,,,,,,,
1,24,male,1,1,8,oddball2,24,house2,red-blue,regular,NA,l,l,0.417600099,1,16
,,,,,,,,,,,,,,,,
1,24,male,1,1,8,oddball2,25,house1,blue-red,oddball,NA,a,l,0.4902,0,16
,,,,,,,,,,,,,,,,
1,24,male,1,1,8,oddball2,26,house1,blue-red,regular,NA,l,l,0.2043988,1,17
,,,,,,,,,,,,,,,,
1,24,male,1,1,8,oddball2,27,house2,blue-red,regular,NA,a,a,0.3961576,1,18
,,,,,,,,,,,,,,,,
1,24,male,1,1,8,oddball2,28,house1,blue-red,regular,NA,l,l,0.295773501,1,19
,,,,,,,,,,,,,,,,
1,24,male,1,1,8,oddball2,29,house2,red-blue,regular,NA,l,l,0.3442764,1,20
,,,,,,,,,,,,,,,,
1,24,male,1,1,8,oddball2,30,house1,blue-red,regular,NA,l,a,0.585677501,0,20
,,,,,,,,,,,,,,,,
1,24,male,1,1,9,changepoint,1,stimuli/house1.png,stimuli/red-blue.png,regular,steady,l,a,0.4404967,0,0
,,,,,,,,,,,,,,,,
1,24,male,1,1,9,changepoint,2,stimuli/house1.png,stimuli/red-blue.png,regular,steady,l,a,0.352101499,0,0
,,,,,,,,,,,,,,,,
1,24,male,1,1,9,changepoint,3,stimuli/house1.png,stimuli/red-blue.png,regular,steady,l,l,0.3270602,1,1
,,,,,,,,,,,,,,,,
1,24,male,1,1,9,changepoint,4,stimuli/house1.png,stimuli/red-blue.png,oddball,switch,a,l,0.2920269,0,1
,,,,,,,,,,,,,,,,
1,24,male,1,1,9,changepoint,5,stimuli/house2.png,stimuli/blue-red.png,oddball,steady,a,a,0.304679999,1,2
,,,,,,,,,,,,,,,,
1,24,male,1,1,9,changepoint,6,stimuli/house2.png,stimuli/blue-red.png,oddball,steady,a,a,0.318531299,1,3
,,,,,,,,,,,,,,,,
1,24,male,1,1,9,changepoint,7,stimuli/house2.png,stimuli/blue-red.png,oddball,steady,a,a,0.27619,1,4
,,,,,,,,,,,,,,,,
1,24,male,1,1,9,changepoint,8,stimuli/house2.png,stimuli/red-blue.png,regular,switch,a,l,0.450721599,0,4
,,,,,,,,,,,,,,,,
1,24,male,1,1,9,changepoint,9,stimuli/house2.png,stimuli/red-blue.png,regular,steady,a,l,0.3494619,0,4
,,,,,,,,,,,,,,,,
1,24,male,1,1,9,changepoint,10,stimuli/house2.png,stimuli/red-blue.png,regular,steady,a,a,0.312379099,1,5
,,,,,,,,,,,,,,,,
1,24,male,1,1,9,changepoint,11,stimuli/house1.png,stimuli/blue-red.png,regular,steady,a,a,0.324579699,1,6
,,,,,,,,,,,,,,,,
1,24,male,1,1,9,changepoint,12,stimuli/house2.png,stimuli/red-blue.png,regular,steady,a,a,0.6095728,1,7
,,,,,,,,,,,,,,,,
1,24,male,1,1,9,changepoint,13,stimuli/house2.png,stimuli/red-blue.png,oddball,switch,l,a,0.2983998,0,7
,,,,,,,,,,,,,,,,
1,24,male,1,1,9,changepoint,14,stimuli/house1.png,stimuli/blue-red.png,oddball,steady,l,l,0.280102301,1,8
,,,,,,,,,,,,,,,,
1,24,male,1,1,9,changepoint,15,stimuli/house1.png,stimuli/red-blue.png,oddball,steady,a,a,0.2856554,1,9
,,,,,,,,,,,,,,,,
1,24,male,1,1,9,changepoint,16,stimuli/house2.png,stimuli/blue-red.png,oddball,steady,a,a,0.375058899,1,10
,,,,,,,,,,,,,,,,
1,24,male,1,1,9,changepoint,17,stimuli/house2.png,stimuli/blue-red.png,oddball,steady,a,a,0.340597101,1,11
,,,,,,,,,,,,,,,,
1,24,male,1,1,9,changepoint,18,stimuli/house1.png,stimuli/red-blue.png,oddball,steady,a,a,0.5019476,1,12
,,,,,,,,,,,,,,,,
1,24,male,1,1,9,changepoint,19,stimuli/house2.png,stimuli/red-blue.png,oddball,steady,l,l,0.720224999,1,13
,,,,,,,,,,,,,,,,
1,24,male,1,1,9,changepoint,20,stimuli/house2.png,stimuli/blue-red.png,regular,switch,l,a,0.368458301,0,13
,,,,,,,,,,,,,,,,
1,24,male,1,1,9,changepoint,21,stimuli/house1.png,stimuli/blue-red.png,regular,steady,a,l,0.079377599,0,13
,,,,,,,,,,,,,,,,
1,24,male,1,1,9,changepoint,22,stimuli/house2.png,stimuli/blue-red.png,regular,steady,l,a,0.065550299,0,13
,,,,,,,,,,,,,,,,
1,24,male,1,1,9,changepoint,23,stimuli/house2.png,stimuli/red-blue.png,regular,steady,a,a,0.340970401,1,14
,,,,,,,,,,,,,,,,
1,24,male,1,1,9,changepoint,24,stimuli/house1.png,stimuli/blue-red.png,oddball,switch,l,a,0.322124399,0,14
,,,,,,,,,,,,,,,,
1,24,male,1,1,9,changepoint,25,stimuli/house1.png,stimuli/red-blue.png,oddball,steady,a,NA,NA,0,14
,,,,,,,,,,,,,,,,
1,24,male,1,1,9,changepoint,26,stimuli/house2.png,stimuli/red-blue.png,oddball,steady,l,l,0.3124153,1,15
,,,,,,,,,,,,,,,,
1,24,male,1,1,9,changepoint,27,stimuli/house2.png,stimuli/blue-red.png,oddball,steady,a,l,0.291758599,0,15
,,,,,,,,,,,,,,,,
1,24,male,1,1,9,changepoint,28,stimuli/house1.png,stimuli/blue-red.png,regular,switch,a,l,0.3389103,0,15
,,,,,,,,,,,,,,,,
1,24,male,1,1,9,changepoint,29,stimuli/house1.png,stimuli/red-blue.png,regular,steady,l,a,0.3848032,0,15
,,,,,,,,,,,,,,,,
1,24,male,1,1,9,changepoint,30,stimuli/house1.png,stimuli/blue-red.png,regular,steady,a,a,0.3162199,1,16
,,,,,,,,,,,,,,,,
1,24,male,1,1,9,changepoint,31,stimuli/house2.png,stimuli/blue-red.png,regular,steady,l,l,0.298203001,1,17
,,,,,,,,,,,,,,,,
1,24,male,1,1,9,changepoint,32,stimuli/house2.png,stimuli/red-blue.png,regular,steady,a,a,0.3981019,1,18
,,,,,,,,,,,,,,,,
1,24,male,1,1,9,changepoint,33,stimuli/house2.png,stimuli/blue-red.png,oddball,switch,a,l,0.265570799,0,18
,,,,,,,,,,,,,,,,
1,24,male,1,1,9,changepoint,34,stimuli/house2.png,stimuli/blue-red.png,oddball,steady,a,l,0.3503046,0,18
,,,,,,,,,,,,,,,,
1,24,male,1,1,9,changepoint,35,stimuli/house2.png,stimuli/blue-red.png,oddball,steady,a,a,0.413944099,1,19
,,,,,,,,,,,,,,,,
1,24,male,1,1,9,changepoint,36,stimuli/house2.png,stimuli/red-blue.png,oddball,steady,l,l,0.300461899,1,20
,,,,,,,,,,,,,,,,
1,24,male,1,1,9,changepoint,37,stimuli/house1.png,stimuli/blue-red.png,oddball,steady,l,l,0.3461104,1,21
,,,,,,,,,,,,,,,,
1,24,male,1,1,9,changepoint,38,stimuli/house1.png,stimuli/blue-red.png,oddball,steady,l,l,0.339231402,1,22
,,,,,,,,,,,,,,,,
1,24,male,1,1,9,changepoint,39,stimuli/house2.png,stimuli/red-blue.png,oddball,steady,l,l,0.311054399,1,23
,,,,,,,,,,,,,,,,
1,24,male,1,1,9,changepoint,40,stimuli/house1.png,stimuli/red-blue.png,regular,switch,l,a,0.422909601,0,23
,,,,,,,,,,,,,,,,
1,24,male,1,1,9,changepoint,41,stimuli/house1.png,stimuli/red-blue.png,regular,steady,l,a,0.3987577,0,23
,,,,,,,,,,,,,,,,
1,24,male,1,1,9,changepoint,42,stimuli/house1.png,stimuli/blue-red.png,regular,steady,a,a,0.3357083,1,24
,,,,,,,,,,,,,,,,
1,24,male,1,1,9,changepoint,43,stimuli/house1.png,stimuli/red-blue.png,oddball,switch,a,l,0.425293401,0,24
,,,,,,,,,,,,,,,,
1,24,male,1,1,9,changepoint,44,stimuli/house1.png,stimuli/red-blue.png,oddball,steady,a,a,0.525702599,1,25
,,,,,,,,,,,,,,,,
1,24,male,1,1,9,changepoint,45,stimuli/house1.png,stimuli/blue-red.png,oddball,steady,l,l,0.5209559,1,26
,,,,,,,,,,,,,,,,
1,24,male,1,1,9,changepoint,46,stimuli/house2.png,stimuli/blue-red.png,oddball,steady,a,a,0.333931701,1,27
,,,,,,,,,,,,,,,,
1,24,male,1,1,9,changepoint,47,stimuli/house1.png,stimuli/blue-red.png,regular,switch,a,l,0.634481899,0,27
,,,,,,,,,,,,,,,,
1,24,male,1,1,9,changepoint,48,stimuli/house2.png,stimuli/red-blue.png,regular,steady,a,a,0.4184018,1,28
,,,,,,,,,,,,,,,,
1,24,male,1,1,9,changepoint,49,stimuli/house1.png,stimuli/red-blue.png,regular,steady,l,l,0.3019682,1,29
,,,,,,,,,,,,,,,,
1,24,male,1,1,9,changepoint,50,stimuli/house2.png,stimuli/red-blue.png,regular,steady,a,a,0.534126399,1,30
,,,,,,,,,,,,,,,,
1,24,male,1,1,9,changepoint,51,stimuli/house2.png,stimuli/red-blue.png,regular,steady,a,l,0.285234999,0,30
,,,,,,,,,,,,,,,,
1,24,male,1,1,9,changepoint,52,stimuli/house2.png,stimuli/blue-red.png,oddball,switch,a,l,0.420158999,0,30
,,,,,,,,,,,,,,,,
1,24,male,1,1,9,changepoint,53,stimuli/house1.png,stimuli/blue-red.png,oddball,steady,l,l,0.331381999,1,31
,,,,,,,,,,,,,,,,
1,24,male,1,1,9,changepoint,54,stimuli/house2.png,stimuli/blue-red.png,oddball,steady,a,a,0.328016398,1,32
,,,,,,,,,,,,,,,,
1,24,male,1,1,9,changepoint,55,stimuli/house2.png,stimuli/red-blue.png,oddball,steady,l,l,0.341735,1,33
,,,,,,,,,,,,,,,,
1,24,male,1,1,9,changepoint,56,stimuli/house1.png,stimuli/blue-red.png,oddball,steady,l,l,0.306965601,1,34
,,,,,,,,,,,,,,,,
1,24,male,1,1,9,changepoint,57,stimuli/house1.png,stimuli/blue-red.png,oddball,steady,l,a,0.572339099,0,34
,,,,,,,,,,,,,,,,
1,24,male,1,1,9,changepoint,58,stimuli/house1.png,stimuli/red-blue.png,regular,switch,l,l,0.692392999,1,35
,,,,,,,,,,,,,,,,
1,24,male,1,1,9,changepoint,59,stimuli/house2.png,stimuli/red-blue.png,regular,steady,a,NA,-1.001403902,0,35
,,,,,,,,,,,,,,,,
1,24,male,1,1,9,changepoint,60,stimuli/house1.png,stimuli/blue-red.png,regular,steady,a,l,0.2627254,0,35
