id,age,sex,cb,order,block,part,trial,cue,buses_order,trans_type,surprise,ans,response,RT,ACC,performance
5,22,f,1,2,practice_no_timeout,association1,1,house2,blue-red,regular,NA,l,a,1.1506507999997666,0
5,22,f,1,2,practice_no_timeout,association1,2,house1,blue-red,regular,NA,a,l,0.4810591000000386,0
5,22,f,1,2,practice_no_timeout,association1,3,house2,blue-red,regular,NA,l,l,0.3812025000001995,1
5,22,f,1,2,practice_no_timeout,association1,4,house1,red-blue,regular,NA,l,l,1.2309895999997025,1
5,22,f,1,2,practice_no_timeout,association1,5,house2,blue-red,regular,NA,l,l,0.5232350999999653,1
5,22,f,1,2,practice_no_timeout,association1,6,house1,blue-red,regular,NA,a,a,0.3593832999999904,1
5,22,f,1,2,practice_no_timeout,association1,7,house2,red-blue,regular,NA,a,a,0.5239131999996971,1
5,22,f,1,2,practice_no_timeout,association1,8,house1,blue-red,regular,NA,a,l,0.3473536999999851,0
5,22,f,1,2,practice_no_timeout,association1,9,house1,blue-red,regular,NA,a,a,0.5844807000003129,1
5,22,f,1,2,practice_no_timeout,association1,10,house2,blue-red,regular,NA,l,l,0.2536670999998023,1
5,22,f,1,2,practice_no_timeout,association1,11,house1,red-blue,regular,NA,l,l,0.24630219999971814,1
5,22,f,1,2,practice_no_timeout,association1,12,house1,blue-red,regular,NA,a,a,0.4086652999999387,1
5,22,f,1,2,practice_no_timeout,association1,13,house2,blue-red,regular,NA,l,l,0.32137409999995725,1
5,22,f,1,2,practice_no_timeout,association1,14,house2,blue-red,regular,NA,l,l,0.2528434000000743,1
5,22,f,1,2,practice_no_timeout,association1,15,house2,blue-red,regular,NA,l,l,0.2160742000000937,1
5,22,f,1,2,practice,association1_timepres,1,house1,red-blue,regular,NA,l,l,0.2770869999999377,1
5,22,f,1,2,practice,association1_timepres,2,house2,blue-red,regular,NA,l,l,0.22410960000024716,1
5,22,f,1,2,practice,association1_timepres,3,house2,red-blue,regular,NA,a,a,0.31599469999991925,1
5,22,f,1,2,practice,association1_timepres,4,house2,blue-red,regular,NA,l,l,0.28340019999996,1
5,22,f,1,2,practice,association1_timepres,5,house2,red-blue,regular,NA,a,a,0.277511400000094,1
5,22,f,1,2,practice,association1_timepres,6,house1,blue-red,regular,NA,a,a,0.2534317999998166,1
5,22,f,1,2,practice,association1_timepres,7,house2,blue-red,regular,NA,l,l,0.15489650000017718,1
5,22,f,1,2,practice_no_timeout,association2,1,house2,red-blue,regular,NA,l,l,0.6104946999998901,1
5,22,f,1,2,practice_no_timeout,association2,2,house1,blue-red,regular,NA,l,a,1.1637189999996735,0
5,22,f,1,2,practice_no_timeout,association2,3,house2,blue-red,regular,NA,a,a,0.2897523999999976,1
5,22,f,1,2,practice_no_timeout,association2,4,house2,blue-red,regular,NA,a,l,0.4730183000001489,0
5,22,f,1,2,practice_no_timeout,association2,5,house2,blue-red,regular,NA,a,a,0.26964659999975993,1
5,22,f,1,2,practice_no_timeout,association2,6,house1,blue-red,regular,NA,l,a,0.22819729999991978,0
5,22,f,1,2,practice_no_timeout,association2,7,house1,blue-red,regular,NA,l,l,0.4842757999999776,1
5,22,f,1,2,practice_no_timeout,association2,8,house2,red-blue,regular,NA,l,a,0.6560787999997046,0
5,22,f,1,2,practice_no_timeout,association2,9,house1,blue-red,regular,NA,l,l,0.7610439999998562,1
5,22,f,1,2,practice_no_timeout,association2,10,house1,blue-red,regular,NA,l,l,0.5901892000001681,1
5,22,f,1,2,practice_no_timeout,association2,11,house1,blue-red,regular,NA,l,l,0.1947309000001951,1
5,22,f,1,2,practice_no_timeout,association2,12,house1,red-blue,regular,NA,a,a,0.19484609999972236,1
5,22,f,1,2,practice_no_timeout,association2,13,house1,red-blue,regular,NA,a,a,0.3650927999997293,1
5,22,f,1,2,practice_no_timeout,association2,14,house1,red-blue,regular,NA,a,a,0.23817559999997684,1
5,22,f,1,2,practice_no_timeout,association2,15,house1,blue-red,regular,NA,l,l,0.3704234000001634,1
5,22,f,1,2,practice_no_timeout,association2,16,house2,red-blue,regular,NA,l,l,0.23187869999992472,1
5,22,f,1,2,practice_no_timeout,association2,17,house1,red-blue,regular,NA,a,a,0.26947310000014113,1
5,22,f,1,2,practice_no_timeout,association2,18,house2,red-blue,regular,NA,l,l,0.2403309999999692,1
5,22,f,1,2,practice_no_timeout,association2,19,house1,blue-red,regular,NA,l,a,0.36491209999985585,0
5,22,f,1,2,practice_no_timeout,association2,20,house1,red-blue,regular,NA,a,l,0.20528749999994034,0
5,22,f,1,2,practice_no_timeout,association2,21,house2,red-blue,regular,NA,l,l,0.2202492000001257,1
5,22,f,1,2,practice_no_timeout,association2,22,house2,blue-red,regular,NA,a,l,1.0299494999999297,0
5,22,f,1,2,practice_no_timeout,association2,23,house1,red-blue,regular,NA,a,a,0.7456193000002713,1
5,22,f,1,2,practice_no_timeout,association2,24,house2,red-blue,regular,NA,l,l,0.20778100000006816,1
5,22,f,1,2,practice_no_timeout,association2,25,house2,red-blue,regular,NA,l,l,0.17091909999999189,1
5,22,f,1,2,practice_no_timeout,association2,26,house2,blue-red,regular,NA,a,a,0.39008430000012595,1
5,22,f,1,2,practice_no_timeout,association2,27,house2,red-blue,regular,NA,l,l,0.22744069999998828,1
5,22,f,1,2,practice_no_timeout,association2,28,house2,red-blue,regular,NA,l,l,0.19836030000033134,1
5,22,f,1,2,practice_no_timeout,association2,29,house1,blue-red,regular,NA,l,l,0.23885119999977178,1
5,22,f,1,2,practice_no_timeout,association2,30,house2,blue-red,regular,NA,a,l,1.103903199999877,0
5,22,f,1,2,practice_no_timeout,association2,31,house1,red-blue,regular,NA,a,l,0.37514569999984815,0
5,22,f,1,2,practice_no_timeout,association2,32,house2,blue-red,regular,NA,a,l,1.017102899999827,0
5,22,f,1,2,practice_no_timeout,association2,33,house1,red-blue,regular,NA,a,a,1.761307400000078,1
5,22,f,1,2,practice_no_timeout,association2,34,house2,blue-red,regular,NA,a,a,0.3499901999998656,1
5,22,f,1,2,practice,association2_timepres,1,house2,red-blue,regular,NA,l,l,0.2166956000000937,1
5,22,f,1,2,practice,association2_timepres,2,house1,blue-red,regular,NA,l,l,0.23374569999987216,1
5,22,f,1,2,practice,association2_timepres,3,house2,blue-red,regular,NA,a,a,0.24550559999988764,1
5,22,f,1,2,practice,association2_timepres,4,house1,blue-red,regular,NA,l,l,0.19232230000034178,1
5,22,f,1,2,practice,association2_timepres,5,house1,blue-red,regular,NA,l,l,0.35871720000022833,1
5,22,f,1,2,practice,association2_timepres,6,house2,red-blue,regular,NA,l,l,0.711403700000119,1
5,22,f,1,2,practice,association2_timepres,7,house2,red-blue,regular,NA,l,l,0.3452540000002955,1
5,22,f,1,2,1,changepoint_prac,1,stimuli/house1.png,stimuli/blue-red.png,regular,steady,a,a,0.5210618000000977,1,1
5,22,f,1,2,1,changepoint_prac,2,stimuli/house1.png,stimuli/red-blue.png,regular,steady,l,l,0.5467090000001917,1,2
5,22,f,1,2,1,changepoint_prac,3,stimuli/house1.png,stimuli/red-blue.png,regular,steady,l,l,0.47079519999988406,1,3
5,22,f,1,2,1,changepoint_prac,4,stimuli/house1.png,stimuli/red-blue.png,regular,steady,l,l,0.4229666000001089,1,4
5,22,f,1,2,1,changepoint_prac,5,stimuli/house2.png,stimuli/red-blue.png,oddball,switch,l,a,0.39441820000001826,0,4
5,22,f,1,2,1,changepoint_prac,6,stimuli/house2.png,stimuli/blue-red.png,oddball,steady,a,NA,NA,0,4
5,22,f,1,2,1,changepoint_prac,7,stimuli/house1.png,stimuli/blue-red.png,oddball,steady,l,l,0.2485885999999482,1,5
5,22,f,1,2,1,changepoint_prac,8,stimuli/house2.png,stimuli/blue-red.png,oddball,steady,a,a,0.43185540000013134,1,6
5,22,f,1,2,1,changepoint_prac,9,stimuli/house1.png,stimuli/red-blue.png,oddball,steady,a,l,0.312239899999895,0,6
5,22,f,1,2,1,changepoint_prac,10,stimuli/house2.png,stimuli/blue-red.png,oddball,steady,a,a,0.6499033999998574,1,7
5,22,f,1,2,1,changepoint_prac,11,stimuli/house1.png,stimuli/red-blue.png,oddball,steady,a,NA,NA,0,7
5,22,f,1,2,1,changepoint_prac,12,stimuli/house1.png,stimuli/blue-red.png,regular,switch,a,a,0.5603240999998889,1,8
5,22,f,1,2,1,changepoint_prac,13,stimuli/house1.png,stimuli/red-blue.png,regular,steady,l,a,0.48715039999979126,0,8
5,22,f,1,2,1,changepoint_prac,14,stimuli/house1.png,stimuli/red-blue.png,regular,steady,l,a,0.5999070000002575,0,8
5,22,f,1,2,1,changepoint_prac,15,stimuli/house2.png,stimuli/blue-red.png,regular,steady,l,NA,NA,0,8
5,22,f,1,2,1,changepoint_prac,16,stimuli/house2.png,stimuli/red-blue.png,regular,steady,a,l,0.4647602000000006,0,8
5,22,f,1,2,1,changepoint_prac,17,stimuli/house1.png,stimuli/red-blue.png,regular,steady,l,l,0.5341465000001335,1,9
5,22,f,1,2,1,changepoint_prac,18,stimuli/house1.png,stimuli/blue-red.png,regular,steady,a,a,0.5367433999999776,1,10
5,22,f,1,2,1,changepoint_prac,19,stimuli/house1.png,stimuli/red-blue.png,oddball,switch,a,l,0.4425256999998055,0,10
5,22,f,1,2,1,changepoint_prac,20,stimuli/house2.png,stimuli/red-blue.png,oddball,steady,l,l,0.3253835999998955,1,11
5,22,f,1,2,1,changepoint_prac,21,stimuli/house2.png,stimuli/blue-red.png,oddball,steady,a,a,0.3483200000000579,1,12
5,22,f,1,2,1,oddball_prac,1,house1,red-blue,regular,NA,l,l,0.32023519999984273,1,1
5,22,f,1,2,1,oddball_prac,2,house2,blue-red,regular,NA,l,l,0.3394289999996545,1,2
5,22,f,1,2,1,oddball_prac,3,house1,blue-red,regular,NA,a,a,0.34614700000020093,1,3
5,22,f,1,2,1,oddball_prac,4,house2,red-blue,oddball,NA,l,l,0.34535900000037145,1,4
5,22,f,1,2,1,oddball_prac,5,house2,red-blue,regular,NA,a,a,0.3406510999998318,1,5
5,22,f,1,2,1,oddball_prac,6,house2,red-blue,regular,NA,a,l,0.38886490000004414,0,5
5,22,f,1,2,1,oddball_prac,7,house1,blue-red,oddball,NA,l,a,0.3916431000002376,0,5
5,22,f,1,2,1,oddball_prac,8,house1,blue-red,regular,NA,a,a,0.7232349999999315,1,6
5,22,f,1,2,1,oddball_prac,9,house2,blue-red,regular,NA,l,l,0.31846560000030877,1,7
5,22,f,1,2,1,oddball_prac,10,house1,red-blue,oddball,NA,a,l,0.41389669999989565,0,7
5,22,f,1,2,1,oddball_prac,11,house2,blue-red,regular,NA,l,a,0.34013770000001387,0,7
5,22,f,1,2,1,oddball_prac,12,house2,red-blue,regular,NA,a,a,0.5055907000000843,1,8
5,22,f,1,2,1,oddball_prac,13,house2,blue-red,regular,NA,l,a,0.3829608000000917,0,8
5,22,f,1,2,1,oddball_prac,14,house1,red-blue,regular,NA,l,l,0.36033839999981865,1,9
5,22,f,1,2,1,oddball_prac,15,house1,red-blue,oddball,NA,a,NA,NA,0,9
5,22,f,1,2,1,oddball_prac,16,house1,blue-red,regular,NA,a,NA,-4.260838499999863,0,9
5,22,f,1,2,1,oddball_prac,17,house2,red-blue,regular,NA,a,l,0.3958256999999321,0,9
5,22,f,1,2,1,oddball_prac,18,house2,red-blue,regular,NA,a,a,0.6111140999996678,1,10
5,22,f,1,2,1,oddball_prac,19,house2,blue-red,regular,NA,l,l,0.6811821000001146,1,11
5,22,f,1,2,1,oddball_prac,20,house1,blue-red,oddball,NA,l,a,0.5713555000002088,0,11
5,22,f,1,2,1,oddball_prac,21,house1,blue-red,regular,NA,a,a,0.5738864999998441,1,12
5,22,f,1,2,1,oddball_prac,22,house2,red-blue,regular,NA,a,a,0.5818787000002885,1,13
5,22,f,1,2,1,oddball_prac,23,house2,blue-red,oddball,NA,a,l,0.54077690000031,0,13
5,22,f,1,2,1,oddball_prac,24,house1,blue-red,regular,NA,a,l,0.3738743999997496,0,13
5,22,f,1,2,1,oddball_prac,25,house2,red-blue,regular,NA,a,NA,NA,0,13
5,22,f,1,2,1,oddball_prac,26,house2,blue-red,regular,NA,l,l,0.5666978999997809,1,14
5,22,f,1,2,1,oddball_prac,27,house2,red-blue,regular,NA,a,a,0.5920559999999568,1,15
5,22,f,1,2,1,oddball_prac,28,house1,red-blue,regular,NA,l,l,0.4600951000002169,1,16
5,22,f,1,2,1,oddball_prac,29,house2,red-blue,regular,NA,a,NA,NA,0,16
5,22,f,1,2,1,oddball_prac,30,house2,red-blue,regular,NA,a,a,0.39700079999965965,1,17
5,22,f,1,2,1,oddball_prac,1,house2,blue-red,regular,NA,a,l,0.35963889999993626,0,0
5,22,f,1,2,1,oddball_prac,2,house1,red-blue,oddball,NA,l,a,0.2924684999998135,0,0
5,22,f,1,2,1,oddball_prac,3,house1,red-blue,regular,NA,a,l,0.3416142999999465,0,0
5,22,f,1,2,1,oddball_prac,4,house1,red-blue,regular,NA,a,a,0.3589302000000316,1,1
5,22,f,1,2,1,oddball_prac,5,house1,red-blue,regular,NA,a,a,0.3024254000001747,1,2
5,22,f,1,2,1,oddball_prac,6,house2,blue-red,oddball,NA,l,a,0.4285667999997713,0,2
5,22,f,1,2,1,oddball_prac,7,house2,red-blue,regular,NA,l,a,0.3512525999999525,0,2
5,22,f,1,2,1,oddball_prac,8,house1,blue-red,regular,NA,l,a,0.21731649999992442,0,2
5,22,f,1,2,1,oddball_prac,9,house2,red-blue,oddball,NA,a,l,0.32428639999989173,0,2
5,22,f,1,2,1,oddball_prac,10,house1,blue-red,regular,NA,l,a,0.49912869999980103,0,2
5,22,f,1,2,1,oddball_prac,11,house2,blue-red,regular,NA,a,a,0.42321210000000065,1,3
5,22,f,1,2,1,oddball_prac,12,house1,blue-red,regular,NA,l,l,0.7345632000001387,1,4
5,22,f,1,2,1,oddball_prac,13,house1,blue-red,regular,NA,l,l,0.3485043999999107,1,5
5,22,f,1,2,1,oddball_prac,14,house1,red-blue,regular,NA,a,a,0.3620965000000069,1,6
5,22,f,1,2,1,oddball_prac,15,house2,blue-red,oddball,NA,l,a,0.5395696999999018,0,6
5,22,f,1,2,1,oddball_prac,16,house2,blue-red,regular,NA,a,l,0.5753989999998339,0,6
5,22,f,1,2,1,oddball_prac,17,house2,blue-red,regular,NA,a,a,0.3415492999997696,1,7
5,22,f,1,2,1,oddball_prac,18,house2,blue-red,regular,NA,a,a,0.4524559000001318,1,8
5,22,f,1,2,1,oddball_prac,19,house1,red-blue,regular,NA,a,a,0.5687096999999994,1,9
5,22,f,1,2,1,oddball_prac,20,house2,red-blue,regular,NA,l,l,0.36144919999969716,1,10
5,22,f,1,2,1,oddball_prac,21,house1,red-blue,oddball,NA,l,a,0.40549940000028073,0,10
5,22,f,1,2,1,oddball_prac,22,house1,red-blue,regular,NA,a,a,0.2997341999998753,1,11
5,22,f,1,2,1,oddball_prac,23,house1,red-blue,regular,NA,a,a,0.5226434000001063,1,12
5,22,f,1,2,1,oddball_prac,24,house2,blue-red,oddball,NA,l,a,0.36916489999975965,0,12
5,22,f,1,2,1,oddball_prac,25,house1,blue-red,regular,NA,l,l,0.3640227999999297,1,13
5,22,f,1,2,1,oddball_prac,26,house2,red-blue,regular,NA,l,l,0.45245089999980337,1,14
5,22,f,1,2,1,oddball_prac,27,house1,red-blue,regular,NA,a,a,0.48758779999980106,1,15
5,22,f,1,2,1,oddball_prac,28,house2,blue-red,regular,NA,a,a,0.38679709999996703,1,16
5,22,f,1,2,1,oddball_prac,29,house1,blue-red,regular,NA,l,l,0.34087810000028185,1,17
5,22,f,1,2,1,oddball_prac,30,house1,red-blue,regular,NA,a,a,0.4359042999999474,1,18
5,22,f,1,2,1,oddball1,1,house1,blue-red,regular,NA,a,l,0.3080936000001202,0,0
5,22,f,1,2,1,oddball1,2,house2,blue-red,oddball,NA,a,l,0.28875600000037593,0,0
5,22,f,1,2,1,oddball1,3,house2,red-blue,regular,NA,a,a,0.3985450000000128,1,1
5,22,f,1,2,1,oddball1,4,house2,blue-red,regular,NA,l,l,0.2859567000000425,1,2
5,22,f,1,2,1,oddball1,5,house2,red-blue,regular,NA,a,a,0.33097319999978936,1,3
5,22,f,1,2,1,oddball1,6,house2,red-blue,regular,NA,a,a,0.3981395999999222,1,4
5,22,f,1,2,1,oddball1,7,house2,blue-red,oddball,NA,a,l,0.3168107000001328,0,4
5,22,f,1,2,1,oddball1,8,house1,blue-red,regular,NA,a,a,0.28487479999967036,1,5
5,22,f,1,2,1,oddball1,9,house1,blue-red,regular,NA,a,a,0.30697090000012395,1,6
5,22,f,1,2,1,oddball1,10,house1,blue-red,oddball,NA,l,a,0.325282000000243,0,6
5,22,f,1,2,1,oddball1,11,house2,blue-red,regular,NA,l,l,0.2997924999999668,1,7
5,22,f,1,2,1,oddball1,12,house1,blue-red,regular,NA,a,a,0.2933484000000135,1,8
5,22,f,1,2,1,oddball1,13,house2,red-blue,oddball,NA,l,a,0.3453442999998515,0,8
5,22,f,1,2,1,oddball1,14,house1,red-blue,regular,NA,l,l,0.30628829999977825,1,9
5,22,f,1,2,1,oddball1,15,house1,red-blue,regular,NA,l,l,0.2863035000000309,1,10
5,22,f,1,2,1,oddball1,16,house1,red-blue,oddball,NA,a,l,0.34954089999973803,0,10
5,22,f,1,2,1,oddball1,17,house2,blue-red,regular,NA,l,NA,NA,0,10
5,22,f,1,2,1,oddball1,18,house1,red-blue,regular,NA,l,l,0.3454842999999528,1,11
5,22,f,1,2,1,oddball1,19,house1,red-blue,regular,NA,l,l,0.5730373999999756,1,12
5,22,f,1,2,1,oddball1,20,house2,blue-red,oddball,NA,a,l,0.5518059000000903,0,12
5,22,f,1,2,1,oddball1,21,house1,red-blue,regular,NA,l,l,0.6359311000001071,1,13
5,22,f,1,2,1,oddball1,22,house2,blue-red,regular,NA,l,l,0.3611611000001176,1,14
5,22,f,1,2,1,oddball1,23,house2,blue-red,regular,NA,l,l,0.2961645000000317,1,15
5,22,f,1,2,1,oddball1,24,house2,red-blue,regular,NA,a,a,0.5989386999999624,1,16
5,22,f,1,2,1,oddball1,25,house2,red-blue,regular,NA,a,a,0.3253263000001425,1,17
5,22,f,1,2,1,oddball1,26,house2,blue-red,regular,NA,l,l,0.4349280000001272,1,18
5,22,f,1,2,1,oddball1,27,house1,blue-red,regular,NA,a,a,0.32802600000013626,1,19
5,22,f,1,2,1,oddball1,28,house1,blue-red,regular,NA,a,a,0.3897775999998885,1,20
5,22,f,1,2,1,oddball1,29,house1,red-blue,regular,NA,l,l,0.6246836999998777,1,21
5,22,f,1,2,1,oddball1,30,house1,blue-red,regular,NA,a,a,0.659632800000054,1,22
5,22,f,1,2,2,oddball2,1,house2,blue-red,oddball,NA,l,l,0.40443150000010064,1,1
5,22,f,1,2,2,oddball2,2,house2,red-blue,regular,NA,l,a,0.38257659999999305,0,1
5,22,f,1,2,2,oddball2,3,house1,blue-red,regular,NA,l,a,0.34555550000004587,0,1
5,22,f,1,2,2,oddball2,4,house1,blue-red,oddball,NA,a,l,0.30342800000016723,0,1
5,22,f,1,2,2,oddball2,5,house2,red-blue,regular,NA,l,l,0.5716231999999764,1,2
5,22,f,1,2,2,oddball2,6,house2,red-blue,regular,NA,l,l,0.35027530000024854,1,3
5,22,f,1,2,2,oddball2,7,house1,red-blue,regular,NA,a,a,0.31921349999993254,1,4
5,22,f,1,2,2,oddball2,8,house1,red-blue,regular,NA,a,a,0.2999046999998427,1,5
5,22,f,1,2,2,oddball2,9,house2,blue-red,regular,NA,a,a,0.373512799999844,1,6
5,22,f,1,2,2,oddball2,10,house1,blue-red,oddball,NA,a,l,0.27622840000003634,0,6
5,22,f,1,2,2,oddball2,11,house1,red-blue,regular,NA,a,a,0.3431738999997833,1,7
5,22,f,1,2,2,oddball2,12,house2,blue-red,regular,NA,a,l,0.4965914999997949,0,7
5,22,f,1,2,2,oddball2,13,house2,red-blue,regular,NA,l,l,0.3391708999997718,1,8
5,22,f,1,2,2,oddball2,14,house2,red-blue,oddball,NA,a,l,0.3965565999997125,0,8
5,22,f,1,2,2,oddball2,15,house1,red-blue,regular,NA,a,a,0.3479685999996036,1,9
5,22,f,1,2,2,oddball2,16,house2,blue-red,regular,NA,a,a,0.3929090999999971,1,10
5,22,f,1,2,2,oddball2,17,house1,red-blue,regular,NA,a,a,0.3517930999996679,1,11
5,22,f,1,2,2,oddball2,18,house2,red-blue,oddball,NA,a,l,0.3407608999996228,0,11
5,22,f,1,2,2,oddball2,19,house1,blue-red,regular,NA,l,l,0.3346606000000065,1,12
5,22,f,1,2,2,oddball2,20,house1,red-blue,regular,NA,a,a,0.34314220000032947,1,13
5,22,f,1,2,2,oddball2,21,house2,blue-red,regular,NA,a,a,0.4100047000001723,1,14
5,22,f,1,2,2,oddball2,22,house2,red-blue,oddball,NA,a,l,0.30353420000028564,0,14
5,22,f,1,2,2,oddball2,23,house2,blue-red,regular,NA,a,a,0.3815365999998903,1,15
5,22,f,1,2,2,oddball2,24,house1,blue-red,regular,NA,l,l,0.33644060000005993,1,16
5,22,f,1,2,2,oddball2,25,house1,blue-red,regular,NA,l,l,0.31573949999983597,1,17
5,22,f,1,2,2,oddball2,26,house2,blue-red,regular,NA,a,a,0.28699630000028264,1,18
5,22,f,1,2,2,oddball2,27,house1,blue-red,regular,NA,l,l,0.3484982999998465,1,19
5,22,f,1,2,2,oddball2,28,house1,red-blue,regular,NA,a,a,0.3996981999998752,1,20
5,22,f,1,2,2,oddball2,29,house2,blue-red,regular,NA,a,a,0.30800950000048033,1,21
5,22,f,1,2,2,oddball2,30,house1,red-blue,regular,NA,a,a,0.32417960000020685,1,22
5,22,f,1,2,3,changepoint,1,stimuli/house2.png,stimuli/blue-red.png,regular,steady,l,a,0.4737616000002163,0,0
5,22,f,1,2,3,changepoint,2,stimuli/house2.png,stimuli/red-blue.png,regular,steady,a,a,0.5272165000005771,1,1
5,22,f,1,2,3,changepoint,3,stimuli/house2.png,stimuli/blue-red.png,regular,steady,l,l,0.3796154999999999,1,2
5,22,f,1,2,3,changepoint,4,stimuli/house2.png,stimuli/blue-red.png,regular,steady,l,l,0.37814930000058666,1,3
5,22,f,1,2,3,changepoint,5,stimuli/house1.png,stimuli/red-blue.png,regular,steady,l,l,0.3289034999997966,1,4
5,22,f,1,2,3,changepoint,6,stimuli/house2.png,stimuli/red-blue.png,regular,steady,a,a,0.3195189999996728,1,5
5,22,f,1,2,3,changepoint,7,stimuli/house1.png,stimuli/blue-red.png,oddball,switch,l,a,0.4588960000000952,0,5
5,22,f,1,2,3,changepoint,8,stimuli/house2.png,stimuli/red-blue.png,oddball,steady,l,l,0.3180829000002632,1,6
5,22,f,1,2,3,changepoint,9,stimuli/house1.png,stimuli/red-blue.png,oddball,steady,a,a,0.2813935999993191,1,7
5,22,f,1,2,3,changepoint,10,stimuli/house2.png,stimuli/blue-red.png,oddball,steady,a,a,0.3443891999995685,1,8
5,22,f,1,2,3,changepoint,11,stimuli/house1.png,stimuli/red-blue.png,regular,switch,l,a,0.3910268999998152,0,8
5,22,f,1,2,3,changepoint,12,stimuli/house2.png,stimuli/blue-red.png,regular,steady,l,a,0.34692379999978584,0,8
5,22,f,1,2,3,changepoint,13,stimuli/house1.png,stimuli/blue-red.png,regular,steady,a,a,0.3305241999996724,1,9
5,22,f,1,2,3,changepoint,14,stimuli/house1.png,stimuli/red-blue.png,regular,steady,l,l,0.454763699999603,1,10
5,22,f,1,2,3,changepoint,15,stimuli/house1.png,stimuli/blue-red.png,regular,steady,a,a,0.3068087999999989,1,11
5,22,f,1,2,3,changepoint,16,stimuli/house1.png,stimuli/blue-red.png,regular,steady,a,a,0.3541380999995454,1,12
5,22,f,1,2,3,changepoint,17,stimuli/house2.png,stimuli/red-blue.png,oddball,switch,l,a,0.5269133000001602,0,12
5,22,f,1,2,3,changepoint,18,stimuli/house1.png,stimuli/blue-red.png,oddball,steady,l,l,0.3317379999998593,1,13
5,22,f,1,2,3,changepoint,19,stimuli/house1.png,stimuli/red-blue.png,oddball,steady,a,a,0.41136229999938223,1,14
5,22,f,1,2,3,changepoint,20,stimuli/house1.png,stimuli/red-blue.png,oddball,steady,a,a,0.34846209999977873,1,15
5,22,f,1,2,3,changepoint,21,stimuli/house2.png,stimuli/red-blue.png,oddball,steady,l,l,0.3448330999999598,1,16
5,22,f,1,2,3,changepoint,22,stimuli/house2.png,stimuli/red-blue.png,oddball,steady,l,l,0.3043393999996624,1,17
5,22,f,1,2,3,changepoint,23,stimuli/house2.png,stimuli/blue-red.png,oddball,steady,a,a,0.5955166000003373,1,18
5,22,f,1,2,3,changepoint,24,stimuli/house1.png,stimuli/blue-red.png,regular,switch,a,l,0.3051584999993793,0,18
5,22,f,1,2,3,changepoint,25,stimuli/house2.png,stimuli/red-blue.png,regular,steady,a,a,0.34720720000041183,1,19
5,22,f,1,2,3,changepoint,26,stimuli/house1.png,stimuli/blue-red.png,regular,steady,a,a,0.4963737999996738,1,20
5,22,f,1,2,3,changepoint,27,stimuli/house2.png,stimuli/blue-red.png,regular,steady,l,l,0.27058080000006157,1,21
5,22,f,1,2,3,changepoint,28,stimuli/house1.png,stimuli/red-blue.png,oddball,switch,a,l,0.3865389000002324,0,21
5,22,f,1,2,3,changepoint,29,stimuli/house2.png,stimuli/blue-red.png,oddball,steady,a,l,0.3644027999998798,0,21
5,22,f,1,2,3,changepoint,30,stimuli/house1.png,stimuli/blue-red.png,oddball,steady,l,NA,NA,0,21
5,22,f,1,2,3,changepoint,31,stimuli/house1.png,stimuli/red-blue.png,oddball,steady,a,NA,NA,0,21
5,22,f,1,2,3,changepoint,32,stimuli/house2.png,stimuli/red-blue.png,oddball,steady,l,NA,NA,0,21
5,22,f,1,2,3,changepoint,33,stimuli/house1.png,stimuli/red-blue.png,oddball,steady,a,NA,NA,0,21
5,22,f,1,2,3,changepoint,34,stimuli/house2.png,stimuli/red-blue.png,oddball,steady,l,NA,NA,0,21
5,22,f,1,2,3,changepoint,35,stimuli/house1.png,stimuli/red-blue.png,regular,switch,l,NA,NA,0,21
5,22,f,1,2,3,changepoint,36,stimuli/house2.png,stimuli/red-blue.png,regular,steady,a,NA,NA,0,21
5,22,f,1,2,3,changepoint,37,stimuli/house2.png,stimuli/red-blue.png,regular,steady,a,NA,NA,0,21
5,22,f,1,2,3,changepoint,38,stimuli/house2.png,stimuli/blue-red.png,regular,steady,l,a,0.6098260999997365,0,21
5,22,f,1,2,3,changepoint,39,stimuli/house2.png,stimuli/blue-red.png,regular,steady,l,l,0.2731181999997716,1,22
5,22,f,1,2,3,changepoint,40,stimuli/house1.png,stimuli/red-blue.png,regular,steady,l,l,0.4527862999993886,1,23
5,22,f,1,2,3,changepoint,41,stimuli/house1.png,stimuli/red-blue.png,oddball,switch,a,l,0.2844055000005028,0,23
5,22,f,1,2,3,changepoint,42,stimuli/house1.png,stimuli/red-blue.png,oddball,steady,a,l,0.5620662999999695,0,23
5,22,f,1,2,3,changepoint,43,stimuli/house2.png,stimuli/red-blue.png,oddball,steady,l,l,0.4854326000004221,1,24
5,22,f,1,2,3,changepoint,44,stimuli/house1.png,stimuli/red-blue.png,oddball,steady,a,a,0.445150200000171,1,25
5,22,f,1,2,3,changepoint,45,stimuli/house2.png,stimuli/red-blue.png,oddball,steady,l,l,0.36628620000010415,1,26
5,22,f,1,2,3,changepoint,46,stimuli/house1.png,stimuli/blue-red.png,oddball,steady,l,l,0.5349998000001506,1,27
5,22,f,1,2,3,changepoint,47,stimuli/house2.png,stimuli/blue-red.png,regular,switch,l,l,0.41704480000043986,1,28
5,22,f,1,2,3,changepoint,48,stimuli/house1.png,stimuli/blue-red.png,regular,steady,a,a,0.29608940000071016,1,29
5,22,f,1,2,3,changepoint,49,stimuli/house2.png,stimuli/red-blue.png,regular,steady,a,a,0.4375190000000657,1,30
5,22,f,1,2,3,changepoint,50,stimuli/house2.png,stimuli/blue-red.png,regular,steady,l,l,0.35534589999952004,1,31
5,22,f,1,2,3,changepoint,51,stimuli/house2.png,stimuli/blue-red.png,regular,steady,l,l,0.3295802000002368,1,32
5,22,f,1,2,3,changepoint,52,stimuli/house2.png,stimuli/red-blue.png,oddball,switch,l,a,0.376658099999986,0,32
5,22,f,1,2,3,changepoint,53,stimuli/house1.png,stimuli/red-blue.png,oddball,steady,a,l,0.2830045999999129,0,32
5,22,f,1,2,3,changepoint,54,stimuli/house2.png,stimuli/red-blue.png,oddball,steady,l,l,0.2764591000004657,1,33
5,22,f,1,2,3,changepoint,55,stimuli/house2.png,stimuli/red-blue.png,oddball,steady,l,l,0.2719500999992306,1,34
5,22,f,1,2,3,changepoint,56,stimuli/house2.png,stimuli/blue-red.png,oddball,steady,a,a,0.3126941000000443,1,35
5,22,f,1,2,3,changepoint,57,stimuli/house2.png,stimuli/blue-red.png,regular,switch,l,a,0.41127940000023955,0,35
5,22,f,1,2,3,changepoint,58,stimuli/house1.png,stimuli/red-blue.png,regular,steady,l,l,0.5891453000003821,1,36
5,22,f,1,2,3,changepoint,59,stimuli/house2.png,stimuli/blue-red.png,regular,steady,l,a,0.37804719999985537,0,36
5,22,f,1,2,3,changepoint,60,stimuli/house1.png,stimuli/red-blue.png,regular,steady,l,l,0.45173829999930604,1,37
5,22,f,1,2,4,oddball1,1,house1,blue-red,regular,NA,a,l,0.3249171000006754,0,0
5,22,f,1,2,4,oddball1,2,house2,blue-red,regular,NA,l,l,0.35308440000062546,1,1
5,22,f,1,2,4,oddball1,3,house2,blue-red,regular,NA,l,l,0.3129540999998426,1,2
5,22,f,1,2,4,oddball1,4,house2,blue-red,regular,NA,l,l,0.3252353999996558,1,3
5,22,f,1,2,4,oddball1,5,house1,blue-red,oddball,NA,l,a,0.3117799000001469,0,3
5,22,f,1,2,4,oddball1,6,house1,blue-red,regular,NA,a,a,0.35012670000014623,1,4
5,22,f,1,2,4,oddball1,7,house2,red-blue,regular,NA,a,a,0.3534749999998894,1,5
5,22,f,1,2,4,oddball1,8,house1,red-blue,oddball,NA,a,l,0.3558791999994355,0,5
5,22,f,1,2,4,oddball1,9,house2,red-blue,regular,NA,a,l,0.655923299999813,0,5
5,22,f,1,2,4,oddball1,10,house2,blue-red,regular,NA,l,l,0.46387659999982134,1,6
5,22,f,1,2,4,oddball1,11,house2,red-blue,oddball,NA,l,a,0.3643420000007609,0,6
5,22,f,1,2,4,oddball1,12,house1,red-blue,regular,NA,l,l,0.2830966999999873,1,7
5,22,f,1,2,4,oddball1,13,house2,blue-red,regular,NA,l,NA,NA,0,7
5,22,f,1,2,4,oddball1,14,house2,blue-red,regular,NA,l,a,0.24683490000006714,0,7
5,22,f,1,2,4,oddball1,15,house1,blue-red,oddball,NA,l,a,0.26829470000029687,0,7
5,22,f,1,2,4,oddball1,16,house1,red-blue,regular,NA,l,l,0.32140110000000277,1,8
5,22,f,1,2,4,oddball1,17,house1,red-blue,regular,NA,l,l,0.33558220000031724,1,9
5,22,f,1,2,4,oddball1,18,house2,blue-red,oddball,NA,a,l,0.3186485000005632,0,9
5,22,f,1,2,4,oddball1,19,house1,red-blue,regular,NA,l,l,0.32272139999986393,1,10
5,22,f,1,2,4,oddball1,20,house2,blue-red,regular,NA,l,l,0.3194425000001502,1,11
5,22,f,1,2,4,oddball1,21,house2,red-blue,regular,NA,a,a,0.43432600000051025,1,12
5,22,f,1,2,4,oddball1,22,house1,blue-red,regular,NA,a,a,0.4275797000000239,1,13
5,22,f,1,2,4,oddball1,23,house1,blue-red,oddball,NA,l,a,0.2816061000003174,0,13
5,22,f,1,2,4,oddball1,24,house2,red-blue,regular,NA,a,l,0.487560399999893,0,13
5,22,f,1,2,4,oddball1,25,house1,blue-red,regular,NA,a,NA,NA,0,13
5,22,f,1,2,4,oddball1,26,house1,red-blue,regular,NA,l,a,0.347244700000374,0,13
5,22,f,1,2,4,oddball1,27,house1,red-blue,regular,NA,l,l,0.31980529999964347,1,14
5,22,f,1,2,4,oddball1,28,house1,red-blue,regular,NA,l,l,0.29950600000029226,1,15
5,22,f,1,2,4,oddball1,29,house1,blue-red,regular,NA,a,a,0.35850290000053064,1,16
5,22,f,1,2,4,oddball1,30,house1,blue-red,regular,NA,a,a,0.32703439999932016,1,17
5,22,f,1,2,5,oddball2,1,house1,blue-red,regular,NA,l,l,0.31692199999997683,1,1
5,22,f,1,2,5,oddball2,2,house2,red-blue,regular,NA,l,l,0.35842199999933655,1,2
5,22,f,1,2,5,oddball2,3,house2,blue-red,oddball,NA,l,NA,NA,0,2
5,22,f,1,2,5,oddball2,4,house1,red-blue,regular,NA,a,a,0.34240259999933187,1,3
5,22,f,1,2,5,oddball2,5,house1,red-blue,regular,NA,a,a,0.33624909999980446,1,4
5,22,f,1,2,5,oddball2,6,house1,blue-red,regular,NA,l,l,0.32894410000062635,1,5
5,22,f,1,2,5,oddball2,7,house2,red-blue,regular,NA,l,l,0.28039629999966564,1,6
5,22,f,1,2,5,oddball2,8,house1,red-blue,oddball,NA,l,a,0.3084152000001268,0,6
5,22,f,1,2,5,oddball2,9,house1,red-blue,regular,NA,a,a,0.3281589999996868,1,7
5,22,f,1,2,5,oddball2,10,house2,blue-red,regular,NA,a,a,0.4232424000001629,1,8
5,22,f,1,2,5,oddball2,11,house2,blue-red,oddball,NA,l,a,0.3433359999999084,0,8
5,22,f,1,2,5,oddball2,12,house2,blue-red,regular,NA,a,a,0.31126749999930325,1,9
5,22,f,1,2,5,oddball2,13,house1,red-blue,regular,NA,a,l,0.539234399999259,0,9
5,22,f,1,2,5,oddball2,14,house2,blue-red,regular,NA,a,a,0.33829900000000634,1,10
5,22,f,1,2,5,oddball2,15,house1,blue-red,regular,NA,l,l,0.35477780000019266,1,11
5,22,f,1,2,5,oddball2,16,house2,red-blue,oddball,NA,a,l,0.3705667000003814,0,11
5,22,f,1,2,5,oddball2,17,house2,red-blue,regular,NA,l,l,0.3245504999995319,1,12
5,22,f,1,2,5,oddball2,18,house2,blue-red,regular,NA,a,a,0.5602445000004082,1,13
5,22,f,1,2,5,oddball2,19,house1,blue-red,oddball,NA,a,l,0.30808950000027835,0,13
5,22,f,1,2,5,oddball2,20,house2,red-blue,regular,NA,l,l,0.3543859000001248,1,14
5,22,f,1,2,5,oddball2,21,house1,blue-red,regular,NA,l,l,0.3134931000004144,1,15
5,22,f,1,2,5,oddball2,22,house2,red-blue,oddball,NA,a,l,0.35471010000037495,0,15
5,22,f,1,2,5,oddball2,23,house1,blue-red,regular,NA,l,l,0.31865079999988666,1,16
5,22,f,1,2,5,oddball2,24,house1,red-blue,regular,NA,a,a,0.3253887000000759,1,17
5,22,f,1,2,5,oddball2,25,house1,red-blue,regular,NA,a,a,0.3538287000001219,1,18
5,22,f,1,2,5,oddball2,26,house1,red-blue,regular,NA,a,a,0.3840494999994917,1,19
5,22,f,1,2,5,oddball2,27,house1,red-blue,regular,NA,a,a,0.43601310000030935,1,20
5,22,f,1,2,5,oddball2,28,house2,blue-red,regular,NA,a,a,0.355522299999393,1,21
5,22,f,1,2,5,oddball2,29,house2,blue-red,regular,NA,a,a,0.4918394999995144,1,22
5,22,f,1,2,5,oddball2,30,house2,blue-red,regular,NA,a,a,0.34994079999978567,1,23
5,22,f,1,2,6,changepoint,1,stimuli/house2.png,stimuli/blue-red.png,regular,steady,l,a,0.385884299999816,0,0
5,22,f,1,2,6,changepoint,2,stimuli/house1.png,stimuli/red-blue.png,regular,steady,l,l,0.3725774000004094,1,1
5,22,f,1,2,6,changepoint,3,stimuli/house2.png,stimuli/red-blue.png,regular,steady,a,a,0.30738130000008823,1,2
5,22,f,1,2,6,changepoint,4,stimuli/house2.png,stimuli/blue-red.png,regular,steady,l,l,0.37307379999947443,1,3
5,22,f,1,2,6,changepoint,5,stimuli/house1.png,stimuli/red-blue.png,oddball,switch,a,l,0.3153815999994549,0,3
5,22,f,1,2,6,changepoint,6,stimuli/house2.png,stimuli/blue-red.png,oddball,steady,a,a,0.3147817999997642,1,4
5,22,f,1,2,6,changepoint,7,stimuli/house2.png,stimuli/blue-red.png,oddball,steady,a,a,0.2895832000003793,1,5
5,22,f,1,2,6,changepoint,8,stimuli/house1.png,stimuli/red-blue.png,oddball,steady,a,a,0.36641059999965364,1,6
5,22,f,1,2,6,changepoint,9,stimuli/house2.png,stimuli/blue-red.png,oddball,steady,a,l,0.5460652000001573,0,6
5,22,f,1,2,6,changepoint,10,stimuli/house2.png,stimuli/blue-red.png,regular,switch,l,a,0.23447980000037205,0,6
5,22,f,1,2,6,changepoint,11,stimuli/house2.png,stimuli/red-blue.png,regular,steady,a,a,0.5332231000002139,1,7
5,22,f,1,2,6,changepoint,12,stimuli/house1.png,stimuli/blue-red.png,regular,steady,a,l,0.5239112999997815,0,7
5,22,f,1,2,6,changepoint,13,stimuli/house1.png,stimuli/red-blue.png,regular,steady,l,l,0.33876390000023093,1,8
5,22,f,1,2,6,changepoint,14,stimuli/house2.png,stimuli/red-blue.png,regular,steady,a,a,0.3271260000001348,1,9
5,22,f,1,2,6,changepoint,15,stimuli/house2.png,stimuli/red-blue.png,oddball,switch,l,a,0.4279483000000255,0,9
5,22,f,1,2,6,changepoint,16,stimuli/house1.png,stimuli/red-blue.png,oddball,steady,a,a,0.31948449999981676,1,10
5,22,f,1,2,6,changepoint,17,stimuli/house2.png,stimuli/blue-red.png,oddball,steady,a,a,0.3348214999996344,1,11
5,22,f,1,2,6,changepoint,18,stimuli/house2.png,stimuli/blue-red.png,oddball,steady,a,a,0.3001249999997526,1,12
5,22,f,1,2,6,changepoint,19,stimuli/house2.png,stimuli/red-blue.png,oddball,steady,l,l,0.31523419999939506,1,13
5,22,f,1,2,6,changepoint,20,stimuli/house1.png,stimuli/blue-red.png,oddball,steady,l,l,0.319872299999588,1,14
5,22,f,1,2,6,changepoint,21,stimuli/house1.png,stimuli/blue-red.png,regular,switch,a,l,0.2813223000002836,0,14
5,22,f,1,2,6,changepoint,22,stimuli/house1.png,stimuli/red-blue.png,regular,steady,l,l,0.33518389999971987,1,15
5,22,f,1,2,6,changepoint,23,stimuli/house1.png,stimuli/blue-red.png,regular,steady,a,a,0.3379274999997506,1,16
5,22,f,1,2,6,changepoint,24,stimuli/house2.png,stimuli/blue-red.png,regular,steady,l,l,0.2981825000006211,1,17
5,22,f,1,2,6,changepoint,25,stimuli/house2.png,stimuli/red-blue.png,regular,steady,a,a,0.37135960000068735,1,18
5,22,f,1,2,6,changepoint,26,stimuli/house2.png,stimuli/red-blue.png,regular,steady,a,a,0.3187898000005589,1,19
5,22,f,1,2,6,changepoint,27,stimuli/house2.png,stimuli/red-blue.png,regular,steady,a,a,0.3436953000000358,1,20
5,22,f,1,2,6,changepoint,28,stimuli/house2.png,stimuli/red-blue.png,oddball,switch,l,a,0.3235561000001326,0,20
5,22,f,1,2,6,changepoint,29,stimuli/house2.png,stimuli/red-blue.png,oddball,steady,l,l,0.30064219999985653,1,21
5,22,f,1,2,6,changepoint,30,stimuli/house1.png,stimuli/red-blue.png,oddball,steady,a,a,0.2888777999996819,1,22
5,22,f,1,2,6,changepoint,31,stimuli/house2.png,stimuli/red-blue.png,regular,switch,a,l,0.27868650000073103,0,22
5,22,f,1,2,6,changepoint,32,stimuli/house2.png,stimuli/blue-red.png,regular,steady,l,l,0.33309189999999944,1,23
5,22,f,1,2,6,changepoint,33,stimuli/house2.png,stimuli/blue-red.png,regular,steady,l,l,0.377685599999495,1,24
5,22,f,1,2,6,changepoint,34,stimuli/house2.png,stimuli/red-blue.png,regular,steady,a,a,0.33298000000013417,1,25
5,22,f,1,2,6,changepoint,35,stimuli/house2.png,stimuli/red-blue.png,regular,steady,a,a,0.3068776000000071,1,26
5,22,f,1,2,6,changepoint,36,stimuli/house2.png,stimuli/red-blue.png,oddball,switch,l,a,0.33738290000019333,0,26
5,22,f,1,2,6,changepoint,37,stimuli/house1.png,stimuli/red-blue.png,oddball,steady,a,a,0.3373656999992818,1,27
5,22,f,1,2,6,changepoint,38,stimuli/house1.png,stimuli/red-blue.png,oddball,steady,a,a,0.3134786000000531,1,28
5,22,f,1,2,6,changepoint,39,stimuli/house2.png,stimuli/red-blue.png,oddball,steady,l,l,0.3052887000003466,1,29
5,22,f,1,2,6,changepoint,40,stimuli/house1.png,stimuli/blue-red.png,regular,switch,a,l,0.41751790000034816,0,29
5,22,f,1,2,6,changepoint,41,stimuli/house1.png,stimuli/blue-red.png,regular,steady,a,a,0.3225148999999874,1,30
5,22,f,1,2,6,changepoint,42,stimuli/house1.png,stimuli/blue-red.png,regular,steady,a,a,0.300485399999161,1,31
5,22,f,1,2,6,changepoint,43,stimuli/house2.png,stimuli/red-blue.png,regular,steady,a,a,0.6075498999998672,1,32
5,22,f,1,2,6,changepoint,44,stimuli/house1.png,stimuli/blue-red.png,regular,steady,a,a,0.3502823000007993,1,33
5,22,f,1,2,6,changepoint,45,stimuli/house1.png,stimuli/blue-red.png,regular,steady,a,a,0.4013604000001578,1,34
5,22,f,1,2,6,changepoint,46,stimuli/house2.png,stimuli/red-blue.png,oddball,switch,l,a,0.3727150000004258,0,34
5,22,f,1,2,6,changepoint,47,stimuli/house2.png,stimuli/red-blue.png,oddball,steady,l,l,0.3207425999999032,1,35
5,22,f,1,2,6,changepoint,48,stimuli/house1.png,stimuli/red-blue.png,oddball,steady,a,a,0.3002028999999311,1,36
5,22,f,1,2,6,changepoint,49,stimuli/house2.png,stimuli/red-blue.png,oddball,steady,l,l,0.3173983999995471,1,37
5,22,f,1,2,6,changepoint,50,stimuli/house2.png,stimuli/blue-red.png,regular,switch,l,a,0.34467860000040673,0,37
5,22,f,1,2,6,changepoint,51,stimuli/house2.png,stimuli/blue-red.png,regular,steady,l,l,0.29848650000076304,1,38
5,22,f,1,2,6,changepoint,52,stimuli/house1.png,stimuli/red-blue.png,regular,steady,l,l,0.33693330000005517,1,39
5,22,f,1,2,6,changepoint,53,stimuli/house2.png,stimuli/blue-red.png,regular,steady,l,l,0.32475830000021233,1,40
5,22,f,1,2,6,changepoint,54,stimuli/house1.png,stimuli/red-blue.png,oddball,switch,a,l,0.3026730999999927,0,40
5,22,f,1,2,6,changepoint,55,stimuli/house1.png,stimuli/blue-red.png,oddball,steady,l,l,0.4977357999996457,1,41
5,22,f,1,2,6,changepoint,56,stimuli/house2.png,stimuli/blue-red.png,oddball,steady,a,a,0.264749999999367,1,42
5,22,f,1,2,6,changepoint,57,stimuli/house1.png,stimuli/blue-red.png,oddball,steady,l,l,0.2477387999997518,1,43
5,22,f,1,2,6,changepoint,58,stimuli/house1.png,stimuli/blue-red.png,oddball,steady,l,l,0.291094900000644,1,44
5,22,f,1,2,6,changepoint,59,stimuli/house2.png,stimuli/red-blue.png,oddball,steady,l,l,0.3754916999996567,1,45
5,22,f,1,2,7,oddball1,1,house2,blue-red,regular,NA,l,l,0.3924348000000464,1,1
5,22,f,1,2,7,oddball1,2,house1,blue-red,regular,NA,a,a,0.32135680000010325,1,2
5,22,f,1,2,7,oddball1,3,house1,red-blue,regular,NA,l,l,0.32874379999975645,1,3
5,22,f,1,2,7,oddball1,4,house2,blue-red,oddball,NA,a,l,0.5611390000003667,0,3
5,22,f,1,2,7,oddball1,5,house1,blue-red,regular,NA,a,a,0.27261819999966974,1,4
5,22,f,1,2,7,oddball1,6,house1,red-blue,regular,NA,l,l,0.3754103999999643,1,5
5,22,f,1,2,7,oddball1,7,house1,blue-red,regular,NA,a,a,0.33266829999956826,1,6
5,22,f,1,2,7,oddball1,8,house2,red-blue,regular,NA,a,a,0.41867829999955575,1,7
5,22,f,1,2,7,oddball1,9,house1,red-blue,oddball,NA,a,l,0.33220299999993586,0,7
5,22,f,1,2,7,oddball1,10,house2,red-blue,regular,NA,a,a,0.332405000000108,1,8
5,22,f,1,2,7,oddball1,11,house2,blue-red,regular,NA,l,l,0.3129054000000906,1,9
5,22,f,1,2,7,oddball1,12,house1,red-blue,oddball,NA,a,l,0.3456174999992072,0,9
5,22,f,1,2,7,oddball1,13,house1,blue-red,regular,NA,a,a,0.3750289999998131,1,10
5,22,f,1,2,7,oddball1,14,house1,red-blue,regular,NA,l,l,0.2853530000002138,1,11
5,22,f,1,2,7,oddball1,15,house2,red-blue,oddball,NA,l,a,0.38122670000029757,0,11
5,22,f,1,2,7,oddball1,16,house2,red-blue,regular,NA,a,a,0.2960997000000134,1,12
5,22,f,1,2,7,oddball1,17,house2,red-blue,regular,NA,a,a,0.3278657999999268,1,13
5,22,f,1,2,7,oddball1,18,house1,blue-red,regular,NA,a,a,0.35944219999964844,1,14
5,22,f,1,2,7,oddball1,19,house2,red-blue,oddball,NA,l,a,0.374233199999253,0,14
5,22,f,1,2,7,oddball1,20,house1,blue-red,regular,NA,a,a,0.3283765999995012,1,15
5,22,f,1,2,7,oddball1,21,house2,red-blue,regular,NA,a,l,0.672810600000048,0,15
5,22,f,1,2,7,oddball1,22,house1,red-blue,regular,NA,l,l,0.31967619999977614,1,16
5,22,f,1,2,7,oddball1,23,house1,blue-red,oddball,NA,l,a,0.2944972000004782,0,16
5,22,f,1,2,7,oddball1,24,house1,red-blue,regular,NA,l,l,0.3331871999998839,1,17
5,22,f,1,2,7,oddball1,25,house1,blue-red,regular,NA,a,a,0.3265971000000718,1,18
5,22,f,1,2,7,oddball1,26,house2,red-blue,regular,NA,a,a,0.32783960000051593,1,19
5,22,f,1,2,7,oddball1,27,house1,red-blue,regular,NA,l,l,0.2744537999997192,1,20
5,22,f,1,2,7,oddball1,28,house2,blue-red,regular,NA,l,l,0.3584029000003284,1,21
5,22,f,1,2,7,oddball1,29,house2,blue-red,regular,NA,l,l,0.3054997999997795,1,22
5,22,f,1,2,7,oddball1,30,house1,red-blue,regular,NA,l,l,0.35194830000000366,1,23
5,22,f,1,2,8,oddball2,1,house1,red-blue,regular,NA,a,a,0.39749310000024707,1,1
5,22,f,1,2,8,oddball2,2,house2,red-blue,oddball,NA,a,l,0.3144250999994256,0,1
5,22,f,1,2,8,oddball2,3,house2,blue-red,regular,NA,a,a,0.40625939999972616,1,2
5,22,f,1,2,8,oddball2,4,house1,red-blue,regular,NA,a,a,0.3464436999993268,1,3
5,22,f,1,2,8,oddball2,5,house1,blue-red,oddball,NA,a,l,0.3365179000002172,0,3
5,22,f,1,2,8,oddball2,6,house2,blue-red,regular,NA,a,a,0.3483777999999802,1,4
5,22,f,1,2,8,oddball2,7,house2,red-blue,regular,NA,l,a,0.353729000000385,0,4
5,22,f,1,2,8,oddball2,8,house1,red-blue,oddball,NA,l,l,0.3178882000001977,1,5
5,22,f,1,2,8,oddball2,9,house1,red-blue,regular,NA,a,a,0.35000900000068214,1,6
5,22,f,1,2,8,oddball2,10,house2,blue-red,regular,NA,a,a,0.5524138999999195,1,7
5,22,f,1,2,8,oddball2,11,house2,red-blue,regular,NA,l,l,0.32854220000081114,1,8
5,22,f,1,2,8,oddball2,12,house2,blue-red,regular,NA,a,a,0.3479122999997344,1,9
5,22,f,1,2,8,oddball2,13,house2,blue-red,regular,NA,a,a,0.39043990000027406,1,10
5,22,f,1,2,8,oddball2,14,house2,blue-red,regular,NA,a,a,0.3455695000002379,1,11
5,22,f,1,2,8,oddball2,15,house1,blue-red,regular,NA,l,l,0.3314885999998296,1,12
5,22,f,1,2,8,oddball2,16,house1,blue-red,oddball,NA,a,l,0.4572045999993861,0,12
5,22,f,1,2,8,oddball2,17,house1,red-blue,regular,NA,a,a,0.32948690000011993,1,13
5,22,f,1,2,8,oddball2,18,house1,red-blue,regular,NA,a,a,0.3314389000006486,1,14
5,22,f,1,2,8,oddball2,19,house1,blue-red,regular,NA,l,l,0.35619079999923997,1,15
5,22,f,1,2,8,oddball2,20,house2,blue-red,regular,NA,a,a,0.3470023999998375,1,16
5,22,f,1,2,8,oddball2,21,house2,blue-red,oddball,NA,l,a,0.3195714000003136,0,16
5,22,f,1,2,8,oddball2,22,house2,red-blue,regular,NA,l,l,0.4053537999998298,1,17
5,22,f,1,2,8,oddball2,23,house2,blue-red,regular,NA,a,a,0.32222249999995256,1,18
5,22,f,1,2,8,oddball2,24,house1,red-blue,regular,NA,a,a,0.4525061000003916,1,19
5,22,f,1,2,8,oddball2,25,house1,red-blue,oddball,NA,l,a,0.36619489999975485,0,19
5,22,f,1,2,8,oddball2,26,house1,blue-red,regular,NA,l,a,0.28142380000008416,0,19
5,22,f,1,2,8,oddball2,27,house1,red-blue,regular,NA,a,a,0.34338909999951284,1,20
5,22,f,1,2,8,oddball2,28,house2,red-blue,regular,NA,l,l,0.28959519999989425,1,21
5,22,f,1,2,8,oddball2,29,house1,blue-red,regular,NA,l,l,0.32178249999924446,1,22
5,22,f,1,2,8,oddball2,30,house2,red-blue,regular,NA,l,l,0.3482851999997365,1,23
5,22,f,1,2,9,changepoint,1,stimuli/house1.png,stimuli/blue-red.png,regular,switch,a,l,0.3851049000004423,0,0
5,22,f,1,2,9,changepoint,2,stimuli/house2.png,stimuli/red-blue.png,regular,steady,a,a,0.3652911999997741,1,1
5,22,f,1,2,9,changepoint,3,stimuli/house2.png,stimuli/red-blue.png,regular,steady,a,a,0.32648629999948753,1,2
5,22,f,1,2,9,changepoint,4,stimuli/house1.png,stimuli/blue-red.png,regular,steady,a,a,0.45106180000038876,1,3
5,22,f,1,2,9,changepoint,5,stimuli/house2.png,stimuli/red-blue.png,regular,steady,a,a,0.34507899999971414,1,4
5,22,f,1,2,9,changepoint,6,stimuli/house1.png,stimuli/red-blue.png,regular,steady,l,l,0.31764899999961926,1,5
5,22,f,1,2,9,changepoint,7,stimuli/house2.png,stimuli/blue-red.png,oddball,switch,a,l,0.35249839999960386,0,5
5,22,f,1,2,9,changepoint,8,stimuli/house1.png,stimuli/red-blue.png,oddball,steady,a,a,0.36243609999928594,1,6
5,22,f,1,2,9,changepoint,9,stimuli/house2.png,stimuli/blue-red.png,oddball,steady,a,a,0.39453279999997903,1,7
5,22,f,1,2,9,changepoint,10,stimuli/house2.png,stimuli/blue-red.png,oddball,steady,a,a,0.361689600000318,1,8
5,22,f,1,2,9,changepoint,11,stimuli/house2.png,stimuli/red-blue.png,oddball,steady,l,l,0.364462900000035,1,9
5,22,f,1,2,9,changepoint,12,stimuli/house1.png,stimuli/blue-red.png,oddball,steady,l,l,0.3392181999997774,1,10
5,22,f,1,2,9,changepoint,13,stimuli/house2.png,stimuli/blue-red.png,regular,switch,l,a,0.31697929999972985,0,10
5,22,f,1,2,9,changepoint,14,stimuli/house2.png,stimuli/red-blue.png,regular,steady,a,a,0.33952839999983553,1,11
5,22,f,1,2,9,changepoint,15,stimuli/house2.png,stimuli/blue-red.png,regular,steady,l,l,0.38864509999984875,1,12
5,22,f,1,2,9,changepoint,16,stimuli/house1.png,stimuli/red-blue.png,regular,steady,l,l,0.3472300000003088,1,13
5,22,f,1,2,9,changepoint,17,stimuli/house2.png,stimuli/red-blue.png,regular,steady,a,a,0.30044569999972737,1,14
5,22,f,1,2,9,changepoint,18,stimuli/house1.png,stimuli/red-blue.png,oddball,switch,a,l,0.34401900000011665,0,14
5,22,f,1,2,9,changepoint,19,stimuli/house1.png,stimuli/red-blue.png,oddball,steady,a,a,0.33127500000045984,1,15
5,22,f,1,2,9,changepoint,20,stimuli/house2.png,stimuli/blue-red.png,oddball,steady,a,a,0.3359618999993472,1,16
5,22,f,1,2,9,changepoint,21,stimuli/house2.png,stimuli/blue-red.png,oddball,steady,a,a,0.3411588999997548,1,17
5,22,f,1,2,9,changepoint,22,stimuli/house2.png,stimuli/red-blue.png,regular,switch,a,l,0.41422510000029433,0,17
5,22,f,1,2,9,changepoint,23,stimuli/house1.png,stimuli/blue-red.png,regular,steady,a,a,0.42341230000056385,1,18
5,22,f,1,2,9,changepoint,24,stimuli/house1.png,stimuli/blue-red.png,regular,steady,a,a,0.3232669999997597,1,19
5,22,f,1,2,9,changepoint,25,stimuli/house2.png,stimuli/red-blue.png,oddball,switch,l,a,0.35844660000020667,0,19
5,22,f,1,2,9,changepoint,26,stimuli/house1.png,stimuli/blue-red.png,oddball,steady,l,a,0.31193979999989097,0,19
5,22,f,1,2,9,changepoint,27,stimuli/house2.png,stimuli/blue-red.png,oddball,steady,a,a,0.39044360000025335,1,20
5,22,f,1,2,9,changepoint,28,stimuli/house2.png,stimuli/red-blue.png,oddball,steady,l,l,0.335951500000192,1,21
5,22,f,1,2,9,changepoint,29,stimuli/house1.png,stimuli/red-blue.png,regular,switch,l,a,0.3182286999999633,0,21
5,22,f,1,2,9,changepoint,30,stimuli/house2.png,stimuli/red-blue.png,regular,steady,a,a,0.4606161000001521,1,22
5,22,f,1,2,9,changepoint,31,stimuli/house1.png,stimuli/red-blue.png,regular,steady,l,l,0.3556171999998696,1,23
5,22,f,1,2,9,changepoint,32,stimuli/house1.png,stimuli/red-blue.png,regular,steady,l,l,0.329524599999786,1,24
5,22,f,1,2,9,changepoint,33,stimuli/house1.png,stimuli/red-blue.png,regular,steady,l,l,0.3411482999999862,1,25
5,22,f,1,2,9,changepoint,34,stimuli/house1.png,stimuli/red-blue.png,regular,steady,l,l,0.3632121000000552,1,26
5,22,f,1,2,9,changepoint,35,stimuli/house1.png,stimuli/blue-red.png,oddball,switch,l,a,0.33694610000020475,0,26
5,22,f,1,2,9,changepoint,36,stimuli/house1.png,stimuli/blue-red.png,oddball,steady,l,l,0.3029258000005939,1,27
5,22,f,1,2,9,changepoint,37,stimuli/house1.png,stimuli/red-blue.png,oddball,steady,a,a,0.3359376999997039,1,28
5,22,f,1,2,9,changepoint,38,stimuli/house2.png,stimuli/red-blue.png,regular,switch,a,l,0.27881210000032297,0,28
5,22,f,1,2,9,changepoint,39,stimuli/house2.png,stimuli/red-blue.png,regular,steady,a,a,0.3180638000003455,1,29
5,22,f,1,2,9,changepoint,40,stimuli/house2.png,stimuli/red-blue.png,regular,steady,a,a,0.3665182000004279,1,30
5,22,f,1,2,9,changepoint,41,stimuli/house1.png,stimuli/red-blue.png,regular,steady,l,l,0.336250100000143,1,31
5,22,f,1,2,9,changepoint,42,stimuli/house2.png,stimuli/red-blue.png,regular,steady,a,a,0.27583530000083556,1,32
5,22,f,1,2,9,changepoint,43,stimuli/house2.png,stimuli/blue-red.png,oddball,switch,a,l,0.3747090999995635,0,32
5,22,f,1,2,9,changepoint,44,stimuli/house2.png,stimuli/blue-red.png,oddball,steady,a,a,0.2464589999999589,1,33
5,22,f,1,2,9,changepoint,45,stimuli/house1.png,stimuli/blue-red.png,oddball,steady,l,l,0.3597171999999773,1,34
5,22,f,1,2,9,changepoint,46,stimuli/house2.png,stimuli/red-blue.png,oddball,steady,l,l,0.3612457999997787,1,35
5,22,f,1,2,9,changepoint,47,stimuli/house2.png,stimuli/blue-red.png,oddball,steady,a,a,0.3780901999998605,1,36
5,22,f,1,2,9,changepoint,48,stimuli/house2.png,stimuli/blue-red.png,regular,switch,l,a,0.42512709999937215,0,36
5,22,f,1,2,9,changepoint,49,stimuli/house2.png,stimuli/red-blue.png,regular,steady,a,a,0.39165460000003804,1,37
5,22,f,1,2,9,changepoint,50,stimuli/house1.png,stimuli/red-blue.png,regular,steady,l,l,0.3309156000004805,1,38
5,22,f,1,2,9,changepoint,51,stimuli/house2.png,stimuli/red-blue.png,regular,steady,a,a,0.3113306000004741,1,39
5,22,f,1,2,9,changepoint,52,stimuli/house1.png,stimuli/red-blue.png,oddball,switch,a,l,0.3194068000002517,0,39
5,22,f,1,2,9,changepoint,53,stimuli/house2.png,stimuli/blue-red.png,oddball,steady,a,l,0.39199660000031145,0,39
5,22,f,1,2,9,changepoint,54,stimuli/house1.png,stimuli/blue-red.png,oddball,steady,l,a,0.3482787000002645,0,39
5,22,f,1,2,9,changepoint,55,stimuli/house2.png,stimuli/red-blue.png,regular,switch,a,l,0.3377407999996649,0,39
5,22,f,1,2,9,changepoint,56,stimuli/house1.png,stimuli/blue-red.png,regular,steady,a,a,0.44160289999945235,1,40
5,22,f,1,2,9,changepoint,57,stimuli/house2.png,stimuli/red-blue.png,regular,steady,a,a,0.441624199999751,1,41
5,22,f,1,2,9,changepoint,58,stimuli/house2.png,stimuli/blue-red.png,regular,steady,l,l,0.3401133999996091,1,42
5,22,f,1,2,9,changepoint,59,stimuli/house2.png,stimuli/blue-red.png,regular,steady,l,l,0.2744464000006701,1,43
5,22,f,1,2,9,changepoint,60,stimuli/house1.png,stimuli/blue-red.png,oddball,switch,l,a,0.30996089999916876,0,43
